mouse_1.x,mouse_1.y,mouse_1.leftButton,mouse_1.midButton,mouse_1.rightButton,mouse_1.time,mouse_1.clicked_name,participant,date,expName,psychopyVersion,OS,frameRate,condition,stage,scene,correct object,left option,middle option,right option,memory resp,memory rt,accuracy,score,x mouse,y mouse,internal lure,external lure,mouse.x,mouse.y,mouse.leftButton,mouse.midButton,mouse.rightButton,mouse.time,mouse.clicked_name,trials.thisRepN,trials.thisTrialN,trials.thisN,trials.thisIndex,trials.ran,Trials,Picture_Recognition,Picture_Recognition_2,Q1_l,Q1_m,Q1_r,Feedback_l,Feedback_m,Feedback_r,internal_lure,external_lure,mouse_3.x,mouse_3.y,mouse_3.leftButton,mouse_3.midButton,mouse_3.rightButton,mouse_3.time,mouse_3.clicked_name
-0.049074032,-0.285185213,1,0,0,9.7159,text_introduction_button,999,2024-07-19_10h18.53.096,N_forgetting_curve,2023.1.3,Win32,60.24096386,,,,,,,,,,,,,,,,,,,,,,,,,,,,,,,,,,,,,,,,,,,,,
,,,,,,,999,2024-07-19_10h18.53.096,N_forgetting_curve,2023.1.3,Win32,60.24096386,e,main,images/scenes/strassenschilder.png,images/objects/ziegelsteine.png,images/objects/stadtfahrrader.png,images/objects/ziegelsteine.png,images/objects/verkehrshutchen.png,images/objects/ziegelsteine.png,2.133,1,1,[-0.0490740316885489],[-0.285185213442202],images/objects/stadtfahrrader.png,images/objects/verkehrshutchen.png,-0.049074032,-0.285185213,1,0,0,2.133,image_middle,0,0,0,10,1,10,images/scenes/strassenschilder.png,images/objects/ziegelsteine.png,images/objects/stadtfahrrader.png,images/objects/ziegelsteine.png,images/objects/verkehrshutchen.png,Nicht_korrekt,Korrekt,Nicht_korrekt,images/objects/stadtfahrrader.png,images/objects/verkehrshutchen.png,,,,,,,
,,,,,,,999,2024-07-19_10h18.53.096,N_forgetting_curve,2023.1.3,Win32,60.24096386,e,main,images/scenes/klassenzimmer.png,images/objects/stifte.png,images/objects/stifte.png,images/objects/schultute.png,images/objects/glocken.png,images/objects/schultute.png,2.1084,0,1,[-0.03148149560998987],[-0.18055555555555555],images/objects/glocken.png,images/objects/schultute.png,-0.031481496,-0.180555556,1,0,0,2.1084,image_middle,0,1,1,54,1,54,images/scenes/klassenzimmer.png,images/objects/stifte.png,images/objects/stifte.png,images/objects/schultute.png,images/objects/glocken.png,Korrekt,Nicht_korrekt,Nicht_korrekt,images/objects/glocken.png,images/objects/schultute.png,,,,,,,
,,,,,,,999,2024-07-19_10h18.53.096,N_forgetting_curve,2023.1.3,Win32,60.24096386,e,main,images/scenes/berge_mit_schnee.png,images/objects/schneemobil.png,images/objects/verschneiter_tannenbaum.png,images/objects/ski.png,images/objects/schneemobil.png,images/objects/verschneiter_tannenbaum.png,2.2998,0,1,[-0.6018518518518519],[-0.29537038449887876],images/objects/ski.png,images/objects/verschneiter_tannenbaum.png,-0.601851852,-0.295370384,1,0,0,2.2998,image_left,0,2,2,15,1,15,images/scenes/berge_mit_schnee.png,images/objects/schneemobil.png,images/objects/verschneiter_tannenbaum.png,images/objects/ski.png,images/objects/schneemobil.png,Nicht_korrekt,Nicht_korrekt,Korrekt,images/objects/ski.png,images/objects/verschneiter_tannenbaum.png,,,,,,,
,,,,,,,999,2024-07-19_10h18.53.096,N_forgetting_curve,2023.1.3,Win32,60.24096386,e,main,images/scenes/arbeitszimmer.png,images/objects/leselampe.png,images/objects/bonsai.png,images/objects/leselampe.png,images/objects/usb_stick.png,images/objects/usb_stick.png,2.7171,0,1,[0.5888889454029225],[-0.24444445857295283],images/objects/bonsai.png,images/objects/usb_stick.png,0.588888945,-0.244444459,1,0,0,2.7171,image_right,0,3,3,5,1,5,images/scenes/arbeitszimmer.png,images/objects/leselampe.png,images/objects/bonsai.png,images/objects/leselampe.png,images/objects/usb_stick.png,Nicht_korrekt,Korrekt,Nicht_korrekt,images/objects/bonsai.png,images/objects/usb_stick.png,,,,,,,
,,,,,,,999,2024-07-19_10h18.53.096,N_forgetting_curve,2023.1.3,Win32,60.24096386,e,main,images/scenes/sauna.png,images/objects/handtuch.png,images/objects/fon.png,images/objects/duschgel.png,images/objects/handtuch.png,images/objects/duschgel.png,1.5904,0,1,[0.07777779190628617],[-0.21944448682996961],images/objects/fon.png,images/objects/duschgel.png,0.077777792,-0.219444487,1,0,0,1.5904,image_middle,0,4,4,58,1,58,images/scenes/sauna.png,images/objects/handtuch.png,images/objects/fon.png,images/objects/duschgel.png,images/objects/handtuch.png,Nicht_korrekt,Nicht_korrekt,Korrekt,images/objects/fon.png,images/objects/duschgel.png,,,,,,,
,,,,,,,999,2024-07-19_10h18.53.096,N_forgetting_curve,2023.1.3,Win32,60.24096386,e,main,images/scenes/burg.png,images/objects/kutsche.png,images/objects/kronleuchter.png,images/objects/bauhelm.png,images/objects/kutsche.png,images/objects/kronleuchter.png,3.2821,0,1,[-0.44074072661223235],[-0.2537037178322121],images/objects/bauhelm.png,images/objects/kronleuchter.png,-0.440740727,-0.253703718,1,0,0,3.2821,image_left,0,5,5,24,1,24,images/scenes/burg.png,images/objects/kutsche.png,images/objects/kronleuchter.png,images/objects/bauhelm.png,images/objects/kutsche.png,Nicht_korrekt,Nicht_korrekt,Korrekt,images/objects/bauhelm.png,images/objects/kronleuchter.png,,,,,,,
,,,,,,,999,2024-07-19_10h18.53.096,N_forgetting_curve,2023.1.3,Win32,60.24096386,e,main,images/scenes/wolken_von_oben.png,images/objects/riesenradgondel.png,images/objects/riesenradgondel.png,images/objects/heissluftballon.png,images/objects/reisetasche.png,images/objects/riesenradgondel.png,4.1653,1,2,[-0.49351851145426434],[-0.16851856090404368],images/objects/reisetasche.png,images/objects/heissluftballon.png,-0.493518511,-0.168518561,1,0,0,4.1653,image_left,0,6,6,18,1,18,images/scenes/wolken_von_oben.png,images/objects/riesenradgondel.png,images/objects/riesenradgondel.png,images/objects/heissluftballon.png,images/objects/reisetasche.png,Korrekt,Nicht_korrekt,Nicht_korrekt,images/objects/reisetasche.png,images/objects/heissluftballon.png,,,,,,,
,,,,,,,999,2024-07-19_10h18.53.096,N_forgetting_curve,2023.1.3,Win32,60.24096386,e,main,images/scenes/garten.png,images/objects/marmorskulptur.png,images/objects/marmorskulptur.png,images/objects/fussball.png,images/objects/blumenzwiebeln.png,images/objects/blumenzwiebeln.png,2.2089,0,2,[0.5379630194769965],[-0.2222222222222222],images/objects/fussball.png,images/objects/blumenzwiebeln.png,0.537963019,-0.222222222,1,0,0,2.2089,image_right,0,7,7,31,1,31,images/scenes/garten.png,images/objects/marmorskulptur.png,images/objects/marmorskulptur.png,images/objects/fussball.png,images/objects/blumenzwiebeln.png,Korrekt,Nicht_korrekt,Nicht_korrekt,images/objects/fussball.png,images/objects/blumenzwiebeln.png,,,,,,,
,,,,,,,999,2024-07-19_10h18.53.096,N_forgetting_curve,2023.1.3,Win32,60.24096386,e,main,images/scenes/parkhaus.png,images/objects/gabelstapler.png,images/objects/satellit.png,images/objects/schranke.png,images/objects/gabelstapler.png,images/objects/schranke.png,1.8002,0,2,[0.2009259683114511],[-0.2138888747603805],images/objects/satellit.png,images/objects/schranke.png,0.200925968,-0.213888875,1,0,0,1.8002,image_middle,0,8,8,20,1,20,images/scenes/parkhaus.png,images/objects/gabelstapler.png,images/objects/satellit.png,images/objects/schranke.png,images/objects/gabelstapler.png,Nicht_korrekt,Nicht_korrekt,Korrekt,images/objects/satellit.png,images/objects/schranke.png,,,,,,,
,,,,,,,999,2024-07-19_10h18.53.096,N_forgetting_curve,2023.1.3,Win32,60.24096386,e,main,images/scenes/volksfest.png,images/objects/popcorn.png,images/objects/zuckerwatte.png,images/objects/popcorn.png,images/objects/kletterhaus.png,images/objects/popcorn.png,1.6189,1,3,[0.03888893127441406],[-0.21203705116554541],images/objects/kletterhaus.png,images/objects/zuckerwatte.png,0.038888931,-0.212037051,1,0,0,1.6189,image_middle,0,9,9,45,1,45,images/scenes/volksfest.png,images/objects/popcorn.png,images/objects/zuckerwatte.png,images/objects/popcorn.png,images/objects/kletterhaus.png,Nicht_korrekt,Korrekt,Nicht_korrekt,images/objects/kletterhaus.png,images/objects/zuckerwatte.png,,,,,,,
,,,,,,,999,2024-07-19_10h18.53.096,N_forgetting_curve,2023.1.3,Win32,60.24096386,e,main,images/scenes/kaminfeuer.png,images/objects/bonsai.png,images/objects/kuscheldecke.png,images/objects/bonsai.png,images/objects/kase.png,images/objects/kuscheldecke.png,2.0592,0,3,[-0.5018518589161061],[-0.2472222646077474],images/objects/kase.png,images/objects/kuscheldecke.png,-0.501851859,-0.247222265,1,0,0,2.0592,image_left,0,10,10,56,1,56,images/scenes/kaminfeuer.png,images/objects/bonsai.png,images/objects/kuscheldecke.png,images/objects/bonsai.png,images/objects/kase.png,Nicht_korrekt,Korrekt,Nicht_korrekt,images/objects/kase.png,images/objects/kuscheldecke.png,,,,,,,
,,,,,,,999,2024-07-19_10h18.53.096,N_forgetting_curve,2023.1.3,Win32,60.24096386,e,main,images/scenes/bibliothek.png,images/objects/altes_telefon.png,images/objects/bibliotheksausweis.png,images/objects/altes_telefon.png,images/objects/teetasse.png,images/objects/bibliotheksausweis.png,2.3565,0,3,[-0.6435185185185185],[-0.2333333757188585],images/objects/teetasse.png,images/objects/bibliotheksausweis.png,-0.643518519,-0.233333376,1,0,0,2.3565,image_left,0,11,11,47,1,47,images/scenes/bibliothek.png,images/objects/altes_telefon.png,images/objects/bibliotheksausweis.png,images/objects/altes_telefon.png,images/objects/teetasse.png,Nicht_korrekt,Korrekt,Nicht_korrekt,images/objects/teetasse.png,images/objects/bibliotheksausweis.png,,,,,,,
,,,,,,,999,2024-07-19_10h18.53.096,N_forgetting_curve,2023.1.3,Win32,60.24096386,e,main,images/scenes/tresor.png,images/objects/schlusselbund.png,images/objects/smaragdring.png,images/objects/schlusselbund.png,images/objects/marmorskulptur.png,images/objects/smaragdring.png,2.2155,0,3,[-0.6435185185185185],[-0.2333333757188585],images/objects/marmorskulptur.png,images/objects/smaragdring.png,-0.643518519,-0.233333376,1,0,0,2.2155,image_left,0,12,12,26,1,26,images/scenes/tresor.png,images/objects/schlusselbund.png,images/objects/smaragdring.png,images/objects/schlusselbund.png,images/objects/marmorskulptur.png,Nicht_korrekt,Korrekt,Nicht_korrekt,images/objects/marmorskulptur.png,images/objects/smaragdring.png,,,,,,,
,,,,,,,999,2024-07-19_10h18.53.096,N_forgetting_curve,2023.1.3,Win32,60.24096386,e,main,images/scenes/skigondel.png,images/objects/rodel.png,images/objects/thermoskanne.png,images/objects/rodel.png,images/objects/schneeschuhe.png,images/objects/thermoskanne.png,1.414,0,3,[-0.5749999858714916],[-0.21018522757071037],images/objects/schneeschuhe.png,images/objects/thermoskanne.png,-0.574999986,-0.210185228,1,0,0,1.414,image_left,0,13,13,35,1,35,images/scenes/skigondel.png,images/objects/rodel.png,images/objects/thermoskanne.png,images/objects/rodel.png,images/objects/schneeschuhe.png,Nicht_korrekt,Korrekt,Nicht_korrekt,images/objects/schneeschuhe.png,images/objects/thermoskanne.png,,,,,,,
,,,,,,,999,2024-07-19_10h18.53.096,N_forgetting_curve,2023.1.3,Win32,60.24096386,e,main,images/scenes/orchesterbuhne.png,images/objects/scheinwerfer.png,images/objects/stockelschuhe.png,images/objects/scheinwerfer.png,images/objects/mikrofon.png,images/objects/scheinwerfer.png,2.9257,1,4,[0.04722220809371383],[-0.2037037037037037],images/objects/stockelschuhe.png,images/objects/mikrofon.png,0.047222208,-0.203703704,1,0,0,2.9257,image_middle,0,14,14,25,1,25,images/scenes/orchesterbuhne.png,images/objects/scheinwerfer.png,images/objects/stockelschuhe.png,images/objects/scheinwerfer.png,images/objects/mikrofon.png,Nicht_korrekt,Korrekt,Nicht_korrekt,images/objects/stockelschuhe.png,images/objects/mikrofon.png,,,,,,,
,,,,,,,999,2024-07-19_10h18.53.096,N_forgetting_curve,2023.1.3,Win32,60.24096386,e,main,images/scenes/sandkasten.png,images/objects/sonnenschirm.png,images/objects/sonnenschirm.png,images/objects/kinder_schaufel.png,images/objects/picknickkorb.png,images/objects/kinder_schaufel.png,1.3334,0,4,[-0.023148148148148147],[-0.20925924513075086],images/objects/picknickkorb.png,images/objects/kinder_schaufel.png,-0.023148148,-0.209259245,1,0,0,1.3334,image_middle,0,15,15,27,1,27,images/scenes/sandkasten.png,images/objects/sonnenschirm.png,images/objects/sonnenschirm.png,images/objects/kinder_schaufel.png,images/objects/picknickkorb.png,Korrekt,Nicht_korrekt,Nicht_korrekt,images/objects/picknickkorb.png,images/objects/kinder_schaufel.png,,,,,,,
,,,,,,,999,2024-07-19_10h18.53.096,N_forgetting_curve,2023.1.3,Win32,60.24096386,e,main,images/scenes/teich.png,images/objects/wasserspeier.png,images/objects/sandspielzeug.png,images/objects/koi.png,images/objects/wasserspeier.png,images/objects/koi.png,0.8323,0,4,[-0.023148148148148147],[-0.20925924513075086],images/objects/sandspielzeug.png,images/objects/koi.png,-0.023148148,-0.209259245,1,0,0,0.8323,image_middle,0,16,16,37,1,37,images/scenes/teich.png,images/objects/wasserspeier.png,images/objects/sandspielzeug.png,images/objects/koi.png,images/objects/wasserspeier.png,Nicht_korrekt,Nicht_korrekt,Korrekt,images/objects/sandspielzeug.png,images/objects/koi.png,,,,,,,
,,,,,,,999,2024-07-19_10h18.53.096,N_forgetting_curve,2023.1.3,Win32,60.24096386,e,main,images/scenes/picknickwiese.png,images/objects/kletterhaus.png,images/objects/aufsitzrasenmaher.png,images/objects/federball.png,images/objects/kletterhaus.png,images/objects/aufsitzrasenmaher.png,1.075,0,4,[-0.5638888676961263],[-0.19259262084960938],images/objects/aufsitzrasenmaher.png,images/objects/federball.png,-0.563888868,-0.192592621,1,0,0,1.075,image_left,0,17,17,29,1,29,images/scenes/picknickwiese.png,images/objects/kletterhaus.png,images/objects/aufsitzrasenmaher.png,images/objects/federball.png,images/objects/kletterhaus.png,Nicht_korrekt,Nicht_korrekt,Korrekt,images/objects/aufsitzrasenmaher.png,images/objects/federball.png,,,,,,,
,,,,,,,999,2024-07-19_10h18.53.096,N_forgetting_curve,2023.1.3,Win32,60.24096386,e,main,images/scenes/bergsee.png,images/objects/picknickkorb.png,images/objects/seerose.png,images/objects/picknickkorb.png,images/objects/frosch.png,images/objects/picknickkorb.png,0.9836,1,5,[0.012037065294053819],[-0.197222250479239],images/objects/seerose.png,images/objects/frosch.png,0.012037065,-0.19722225,1,0,0,0.9836,image_middle,0,18,18,23,1,23,images/scenes/bergsee.png,images/objects/picknickkorb.png,images/objects/seerose.png,images/objects/picknickkorb.png,images/objects/frosch.png,Nicht_korrekt,Korrekt,Nicht_korrekt,images/objects/seerose.png,images/objects/frosch.png,,,,,,,
,,,,,,,999,2024-07-19_10h18.53.096,N_forgetting_curve,2023.1.3,Win32,60.24096386,e,main,images/scenes/see_mit_ruderboot.png,images/objects/kajak.png,images/objects/kajak.png,images/objects/kaulquappen.png,images/objects/bademantel.png,images/objects/kajak.png,1.242,1,6,[-0.4722222222222222],[-0.26018517105667677],images/objects/bademantel.png,images/objects/kaulquappen.png,-0.472222222,-0.260185171,1,0,0,1.242,image_left,0,19,19,13,1,13,images/scenes/see_mit_ruderboot.png,images/objects/kajak.png,images/objects/kajak.png,images/objects/kaulquappen.png,images/objects/bademantel.png,Korrekt,Nicht_korrekt,Nicht_korrekt,images/objects/bademantel.png,images/objects/kaulquappen.png,,,,,,,
,,,,,,,999,2024-07-19_10h18.53.096,N_forgetting_curve,2023.1.3,Win32,60.24096386,e,main,images/scenes/skipiste.png,images/objects/ski.png,images/objects/schneemann.png,images/objects/ski.png,images/objects/skistock.png,images/objects/ski.png,1.1998,1,7,[-0.024999971742983216],[-0.25462962962962965],images/objects/schneemann.png,images/objects/skistock.png,-0.024999972,-0.25462963,1,0,0,1.1998,image_middle,0,20,20,49,1,49,images/scenes/skipiste.png,images/objects/ski.png,images/objects/schneemann.png,images/objects/ski.png,images/objects/skistock.png,Nicht_korrekt,Korrekt,Nicht_korrekt,images/objects/schneemann.png,images/objects/skistock.png,,,,,,,
,,,,,,,999,2024-07-19_10h18.53.096,N_forgetting_curve,2023.1.3,Win32,60.24096386,e,main,images/scenes/wilder_fluss.png,images/objects/angel.png,images/objects/surfbretter.png,images/objects/treibholz.png,images/objects/angel.png,images/objects/surfbretter.png,3.3153,0,7,[-0.4074074074074074],[-0.12037037037037036],images/objects/surfbretter.png,images/objects/treibholz.png,-0.407407407,-0.12037037,1,0,0,3.3153,image_left,0,21,21,32,1,32,images/scenes/wilder_fluss.png,images/objects/angel.png,images/objects/surfbretter.png,images/objects/treibholz.png,images/objects/angel.png,Nicht_korrekt,Nicht_korrekt,Korrekt,images/objects/surfbretter.png,images/objects/treibholz.png,,,,,,,
,,,,,,,999,2024-07-19_10h18.53.096,N_forgetting_curve,2023.1.3,Win32,60.24096386,e,main,images/scenes/esszimmer.png,images/objects/reiskocher.png,images/objects/kurbis.png,images/objects/weinflasche.png,images/objects/reiskocher.png,images/objects/weinflasche.png,1.7923,0,7,[0.015740783126265916],[-0.16481484307183158],images/objects/kurbis.png,images/objects/weinflasche.png,0.015740783,-0.164814843,1,0,0,1.7923,image_middle,0,22,22,4,1,4,images/scenes/esszimmer.png,images/objects/reiskocher.png,images/objects/kurbis.png,images/objects/weinflasche.png,images/objects/reiskocher.png,Nicht_korrekt,Nicht_korrekt,Korrekt,images/objects/kurbis.png,images/objects/weinflasche.png,,,,,,,
,,,,,,,999,2024-07-19_10h18.53.096,N_forgetting_curve,2023.1.3,Win32,60.24096386,e,main,images/scenes/flohmarkt.png,images/objects/schlosser.png,images/objects/popcorn.png,images/objects/fotoalbum.png,images/objects/schlosser.png,images/objects/fotoalbum.png,2.5885,0,7,[0.015740783126265916],[-0.16481484307183158],images/objects/popcorn.png,images/objects/fotoalbum.png,0.015740783,-0.164814843,1,0,0,2.5885,image_middle,0,23,23,43,1,43,images/scenes/flohmarkt.png,images/objects/schlosser.png,images/objects/popcorn.png,images/objects/fotoalbum.png,images/objects/schlosser.png,Nicht_korrekt,Nicht_korrekt,Korrekt,images/objects/popcorn.png,images/objects/fotoalbum.png,,,,,,,
,,,,,,,999,2024-07-19_10h18.53.096,N_forgetting_curve,2023.1.3,Win32,60.24096386,e,main,images/scenes/schaufenster.png,images/objects/kasse.png,images/objects/gurtel.png,images/objects/einkaufstaschen.png,images/objects/kasse.png,images/objects/einkaufstaschen.png,1.1921,0,7,[0.015740783126265916],[-0.16481484307183158],images/objects/einkaufstaschen.png,images/objects/gurtel.png,0.015740783,-0.164814843,1,0,0,1.1921,image_middle,0,24,24,41,1,41,images/scenes/schaufenster.png,images/objects/kasse.png,images/objects/gurtel.png,images/objects/einkaufstaschen.png,images/objects/kasse.png,Nicht_korrekt,Nicht_korrekt,Korrekt,images/objects/einkaufstaschen.png,images/objects/gurtel.png,,,,,,,
,,,,,,,999,2024-07-19_10h18.53.096,N_forgetting_curve,2023.1.3,Win32,60.24096386,e,main,images/scenes/japanische_teestube.png,images/objects/teetasse.png,images/objects/teetasse.png,images/objects/bambus.png,images/objects/reiskocher.png,images/objects/bambus.png,3.5331,0,7,[0.015740783126265916],[-0.16481484307183158],images/objects/reiskocher.png,images/objects/bambus.png,0.015740783,-0.164814843,1,0,0,3.5331,image_middle,0,25,25,50,1,50,images/scenes/japanische_teestube.png,images/objects/teetasse.png,images/objects/teetasse.png,images/objects/bambus.png,images/objects/reiskocher.png,Korrekt,Nicht_korrekt,Nicht_korrekt,images/objects/reiskocher.png,images/objects/bambus.png,,,,,,,
,,,,,,,999,2024-07-19_10h18.53.096,N_forgetting_curve,2023.1.3,Win32,60.24096386,e,main,images/scenes/see_mit_steg.png,images/objects/seerose.png,images/objects/seerose.png,images/objects/libelle.png,images/objects/schwimmflugel.png,images/objects/seerose.png,1.8669,1,8,[-0.46296296296296297],[-0.18240744979293258],images/objects/schwimmflugel.png,images/objects/libelle.png,-0.462962963,-0.18240745,1,0,0,1.8669,image_left,0,26,26,16,1,16,images/scenes/see_mit_steg.png,images/objects/seerose.png,images/objects/seerose.png,images/objects/libelle.png,images/objects/schwimmflugel.png,Korrekt,Nicht_korrekt,Nicht_korrekt,images/objects/schwimmflugel.png,images/objects/libelle.png,,,,,,,
,,,,,,,999,2024-07-19_10h18.53.096,N_forgetting_curve,2023.1.3,Win32,60.24096386,e,main,images/scenes/spielplatz.png,images/objects/fussball.png,images/objects/wippe.png,images/objects/fussball.png,images/objects/sonnenschirm.png,images/objects/wippe.png,3.016,0,8,[-0.46296296296296297],[-0.18240744979293258],images/objects/sonnenschirm.png,images/objects/wippe.png,-0.462962963,-0.18240745,1,0,0,3.016,image_left,0,27,27,28,1,28,images/scenes/spielplatz.png,images/objects/fussball.png,images/objects/wippe.png,images/objects/fussball.png,images/objects/sonnenschirm.png,Nicht_korrekt,Korrekt,Nicht_korrekt,images/objects/sonnenschirm.png,images/objects/wippe.png,,,,,,,
,,,,,,,999,2024-07-19_10h18.53.096,N_forgetting_curve,2023.1.3,Win32,60.24096386,e,main,images/scenes/weltraum.png,images/objects/flugzeug.png,images/objects/flugzeug.png,images/objects/geld.png,images/objects/raumschiff.png,images/objects/raumschiff.png,1.999,0,8,[0.5824074921784578],[-0.22407411645959924],images/objects/geld.png,images/objects/raumschiff.png,0.582407492,-0.224074116,1,0,0,1.999,image_right,0,28,28,51,1,51,images/scenes/weltraum.png,images/objects/flugzeug.png,images/objects/flugzeug.png,images/objects/geld.png,images/objects/raumschiff.png,Korrekt,Nicht_korrekt,Nicht_korrekt,images/objects/geld.png,images/objects/raumschiff.png,,,,,,,
,,,,,,,999,2024-07-19_10h18.53.096,N_forgetting_curve,2023.1.3,Win32,60.24096386,e,main,images/scenes/kuhstall.png,images/objects/kase.png,images/objects/melkmaschine.png,images/objects/wanderschuhe.png,images/objects/kase.png,images/objects/kase.png,1.609,1,9,[0.5824074921784578],[-0.22407411645959924],images/objects/wanderschuhe.png,images/objects/melkmaschine.png,0.582407492,-0.224074116,1,0,0,1.609,image_right,0,29,29,53,1,53,images/scenes/kuhstall.png,images/objects/kase.png,images/objects/melkmaschine.png,images/objects/wanderschuhe.png,images/objects/kase.png,Nicht_korrekt,Nicht_korrekt,Korrekt,images/objects/wanderschuhe.png,images/objects/melkmaschine.png,,,,,,,
,,,,,,,999,2024-07-19_10h18.53.096,N_forgetting_curve,2023.1.3,Win32,60.24096386,e,main,images/scenes/brandung.png,images/objects/sandspielzeug.png,images/objects/muschel.png,images/objects/angel.png,images/objects/sandspielzeug.png,images/objects/muschel.png,1.7491,0,9,[-0.552777784842032],[-0.20833333333333334],images/objects/angel.png,images/objects/muschel.png,-0.552777785,-0.208333333,1,0,0,1.7491,image_left,0,30,30,38,1,38,images/scenes/brandung.png,images/objects/sandspielzeug.png,images/objects/muschel.png,images/objects/angel.png,images/objects/sandspielzeug.png,Nicht_korrekt,Nicht_korrekt,Korrekt,images/objects/angel.png,images/objects/muschel.png,,,,,,,
,,,,,,,999,2024-07-19_10h18.53.096,N_forgetting_curve,2023.1.3,Win32,60.24096386,e,main,images/scenes/berge_sommer.png,images/objects/edelweiss.png,images/objects/edelweiss.png,images/objects/wanderhose.png,images/objects/milchkanne.png,images/objects/edelweiss.png,2.6823,1,10,[-0.49814814108389394],[-0.20555559794108072],images/objects/milchkanne.png,images/objects/wanderhose.png,-0.498148141,-0.205555598,1,0,0,2.6823,image_left,0,31,31,19,1,19,images/scenes/berge_sommer.png,images/objects/edelweiss.png,images/objects/edelweiss.png,images/objects/wanderhose.png,images/objects/milchkanne.png,Korrekt,Nicht_korrekt,Nicht_korrekt,images/objects/milchkanne.png,images/objects/wanderhose.png,,,,,,,
,,,,,,,999,2024-07-19_10h18.53.096,N_forgetting_curve,2023.1.3,Win32,60.24096386,e,main,images/scenes/stadtbrunnen.png,images/objects/stadtfahrrader.png,images/objects/stadtfahrrader.png,images/objects/osterschmuck.png,images/objects/riesenradgondel.png,images/objects/stadtfahrrader.png,2.4322,1,11,[-0.49814814108389394],[-0.20555559794108072],images/objects/riesenradgondel.png,images/objects/osterschmuck.png,-0.498148141,-0.205555598,1,0,0,2.4322,image_left,0,32,32,42,1,42,images/scenes/stadtbrunnen.png,images/objects/stadtfahrrader.png,images/objects/stadtfahrrader.png,images/objects/osterschmuck.png,images/objects/riesenradgondel.png,Korrekt,Nicht_korrekt,Nicht_korrekt,images/objects/riesenradgondel.png,images/objects/osterschmuck.png,,,,,,,
,,,,,,,999,2024-07-19_10h18.53.096,N_forgetting_curve,2023.1.3,Win32,60.24096386,e,main,images/scenes/waschsalon.png,images/objects/bademantel.png,images/objects/socken.png,images/objects/zeitschriften.png,images/objects/bademantel.png,images/objects/socken.png,2.6547,0,11,[-0.4416666737309209],[-0.197222250479239],images/objects/zeitschriften.png,images/objects/socken.png,-0.441666674,-0.19722225,1,0,0,2.6547,image_left,0,33,33,6,1,6,images/scenes/waschsalon.png,images/objects/bademantel.png,images/objects/socken.png,images/objects/zeitschriften.png,images/objects/bademantel.png,Nicht_korrekt,Nicht_korrekt,Korrekt,images/objects/zeitschriften.png,images/objects/socken.png,,,,,,,
,,,,,,,999,2024-07-19_10h18.53.096,N_forgetting_curve,2023.1.3,Win32,60.24096386,e,main,images/scenes/fussballplatz.png,images/objects/aufsitzrasenmaher.png,images/objects/aufsitzrasenmaher.png,images/objects/trillerpfeife.png,images/objects/fahrkarten.png,images/objects/trillerpfeife.png,3.2809,0,11,[0.010185171056676793],[-0.17037038449887876],images/objects/fahrkarten.png,images/objects/trillerpfeife.png,0.010185171,-0.170370384,1,0,0,3.2809,image_middle,0,34,34,44,1,44,images/scenes/fussballplatz.png,images/objects/aufsitzrasenmaher.png,images/objects/aufsitzrasenmaher.png,images/objects/trillerpfeife.png,images/objects/fahrkarten.png,Korrekt,Nicht_korrekt,Nicht_korrekt,images/objects/fahrkarten.png,images/objects/trillerpfeife.png,,,,,,,
,,,,,,,999,2024-07-19_10h18.53.096,N_forgetting_curve,2023.1.3,Win32,60.24096386,e,main,images/scenes/altstadt.png,images/objects/glocken.png,images/objects/kopfsteinpflaster.png,images/objects/glocken.png,images/objects/wasche.png,images/objects/kopfsteinpflaster.png,2.5734,0,11,[-0.5222222010294596],[-0.09722222222222222],images/objects/wasche.png,images/objects/kopfsteinpflaster.png,-0.522222201,-0.097222222,1,0,0,2.5734,image_left,0,35,35,2,1,2,images/scenes/altstadt.png,images/objects/glocken.png,images/objects/kopfsteinpflaster.png,images/objects/glocken.png,images/objects/wasche.png,Nicht_korrekt,Korrekt,Nicht_korrekt,images/objects/wasche.png,images/objects/kopfsteinpflaster.png,,,,,,,
,,,,,,,999,2024-07-19_10h18.53.096,N_forgetting_curve,2023.1.3,Win32,60.24096386,e,main,images/scenes/schwimmbad.png,images/objects/schwimmreifen.png,images/objects/schwimmreifen.png,images/objects/handtuch.png,images/objects/boje.png,images/objects/schwimmreifen.png,4.1899,1,12,[-0.4888888818246347],[-0.13333334746184172],images/objects/handtuch.png,images/objects/boje.png,-0.488888882,-0.133333347,1,0,0,4.1899,image_left,0,36,36,48,1,48,images/scenes/schwimmbad.png,images/objects/schwimmreifen.png,images/objects/schwimmreifen.png,images/objects/handtuch.png,images/objects/boje.png,Korrekt,Nicht_korrekt,Nicht_korrekt,images/objects/handtuch.png,images/objects/boje.png,,,,,,,
,,,,,,,999,2024-07-19_10h18.53.096,N_forgetting_curve,2023.1.3,Win32,60.24096386,e,main,images/scenes/nagelstudio.png,images/objects/geld.png,images/objects/leselampe.png,images/objects/nagelfeile.png,images/objects/geld.png,images/objects/nagelfeile.png,4.3757,0,12,[-0.09814813401963976],[-0.1527777777777778],images/objects/leselampe.png,images/objects/nagelfeile.png,-0.098148134,-0.152777778,1,0,0,4.3757,image_middle,0,37,37,9,1,9,images/scenes/nagelstudio.png,images/objects/geld.png,images/objects/leselampe.png,images/objects/nagelfeile.png,images/objects/geld.png,Nicht_korrekt,Nicht_korrekt,Korrekt,images/objects/leselampe.png,images/objects/nagelfeile.png,,,,,,,
,,,,,,,999,2024-07-19_10h18.53.096,N_forgetting_curve,2023.1.3,Win32,60.24096386,e,main,images/scenes/wasserturm.png,images/objects/satellit.png,images/objects/satellit.png,images/objects/altes_telefon.png,images/objects/alte_holztur.png,images/objects/alte_holztur.png,2.2243,0,12,[0.7416667231807003],[-0.17314819053367334],images/objects/altes_telefon.png,images/objects/alte_holztur.png,0.741666723,-0.173148191,1,0,0,2.2243,image_right,0,38,38,0,1,0,images/scenes/wasserturm.png,images/objects/satellit.png,images/objects/satellit.png,images/objects/altes_telefon.png,images/objects/alte_holztur.png,Korrekt,Nicht_korrekt,Nicht_korrekt,images/objects/altes_telefon.png,images/objects/alte_holztur.png,,,,,,,
,,,,,,,999,2024-07-19_10h18.53.096,N_forgetting_curve,2023.1.3,Win32,60.24096386,e,main,images/scenes/sushi_restaurant.png,images/objects/gabel.png,images/objects/gabel.png,images/objects/sushi.png,images/objects/karotten.png,images/objects/gabel.png,1.9154,1,13,[-0.3888888888888889],[-0.23796300534848813],images/objects/karotten.png,images/objects/sushi.png,-0.388888889,-0.237963005,1,0,0,1.9154,image_left,0,39,39,30,1,30,images/scenes/sushi_restaurant.png,images/objects/gabel.png,images/objects/gabel.png,images/objects/sushi.png,images/objects/karotten.png,Korrekt,Nicht_korrekt,Nicht_korrekt,images/objects/karotten.png,images/objects/sushi.png,,,,,,,
,,,,,,,999,2024-07-19_10h18.53.096,N_forgetting_curve,2023.1.3,Win32,60.24096386,e,main,images/scenes/kunstgalerie.png,images/objects/stockelschuhe.png,images/objects/podest.png,images/objects/stockelschuhe.png,images/objects/overhead.png,images/objects/podest.png,2.7147,0,13,[-0.5370370370370371],[-0.23148148148148148],images/objects/overhead.png,images/objects/podest.png,-0.537037037,-0.231481481,1,0,0,2.7147,image_left,0,40,40,59,1,59,images/scenes/kunstgalerie.png,images/objects/stockelschuhe.png,images/objects/podest.png,images/objects/stockelschuhe.png,images/objects/overhead.png,Nicht_korrekt,Korrekt,Nicht_korrekt,images/objects/overhead.png,images/objects/podest.png,,,,,,,
,,,,,,,999,2024-07-19_10h18.53.096,N_forgetting_curve,2023.1.3,Win32,60.24096386,e,main,images/scenes/kirche.png,images/objects/geige.png,images/objects/geige.png,images/objects/kreuz.png,images/objects/wasserspeier.png,images/objects/kreuz.png,1.6277,0,13,[-0.06759255020706742],[-0.1212962821677879],images/objects/wasserspeier.png,images/objects/kreuz.png,-0.06759255,-0.121296282,1,0,0,1.6277,image_middle,0,41,41,11,1,11,images/scenes/kirche.png,images/objects/geige.png,images/objects/geige.png,images/objects/kreuz.png,images/objects/wasserspeier.png,Korrekt,Nicht_korrekt,Nicht_korrekt,images/objects/wasserspeier.png,images/objects/kreuz.png,,,,,,,
,,,,,,,999,2024-07-19_10h18.53.096,N_forgetting_curve,2023.1.3,Win32,60.24096386,e,main,images/scenes/wald.png,images/objects/wanderschuhe.png,images/objects/auto.png,images/objects/kastanien.png,images/objects/wanderschuhe.png,images/objects/wanderschuhe.png,1.199,1,14,[0.5555555555555556],[-0.17962964375813803],images/objects/auto.png,images/objects/kastanien.png,0.555555556,-0.179629644,1,0,0,1.199,image_right,0,42,42,14,1,14,images/scenes/wald.png,images/objects/wanderschuhe.png,images/objects/auto.png,images/objects/kastanien.png,images/objects/wanderschuhe.png,Nicht_korrekt,Nicht_korrekt,Korrekt,images/objects/auto.png,images/objects/kastanien.png,,,,,,,
,,,,,,,999,2024-07-19_10h18.53.096,N_forgetting_curve,2023.1.3,Win32,60.24096386,e,main,images/scenes/lagerhalle.png,images/objects/bauhelm.png,images/objects/hebebuhne.png,images/objects/ziegelsteine.png,images/objects/bauhelm.png,images/objects/hebebuhne.png,2.3823,0,14,[-0.4675925925925926],[-0.16851856090404368],images/objects/ziegelsteine.png,images/objects/hebebuhne.png,-0.467592593,-0.168518561,1,0,0,2.3823,image_left,0,43,43,57,1,57,images/scenes/lagerhalle.png,images/objects/bauhelm.png,images/objects/hebebuhne.png,images/objects/ziegelsteine.png,images/objects/bauhelm.png,Nicht_korrekt,Nicht_korrekt,Korrekt,images/objects/ziegelsteine.png,images/objects/hebebuhne.png,,,,,,,
,,,,,,,999,2024-07-19_10h18.53.096,N_forgetting_curve,2023.1.3,Win32,60.24096386,e,main,images/scenes/italienische_stadt.png,images/objects/surfbretter.png,images/objects/crossaint.png,images/objects/surfbretter.png,images/objects/kajak.png,images/objects/crossaint.png,8.3282,0,14,[-0.4675925925925926],[-0.16851856090404368],images/objects/kajak.png,images/objects/crossaint.png,-0.467592593,-0.168518561,1,0,0,8.3282,image_left,0,44,44,33,1,33,images/scenes/italienische_stadt.png,images/objects/surfbretter.png,images/objects/crossaint.png,images/objects/surfbretter.png,images/objects/kajak.png,Nicht_korrekt,Korrekt,Nicht_korrekt,images/objects/kajak.png,images/objects/crossaint.png,,,,,,,
,,,,,,,999,2024-07-19_10h18.53.096,N_forgetting_curve,2023.1.3,Win32,60.24096386,e,main,images/scenes/spuren_im_schnee.png,images/objects/schneemann.png,images/objects/schneemann.png,images/objects/rodel.png,images/objects/winterschuh.png,images/objects/winterschuh.png,4.0322,0,14,[0.623148176405165],[-0.21944448682996961],images/objects/rodel.png,images/objects/winterschuh.png,0.623148176,-0.219444487,1,0,0,4.0322,image_right,0,45,45,36,1,36,images/scenes/spuren_im_schnee.png,images/objects/schneemann.png,images/objects/schneemann.png,images/objects/rodel.png,images/objects/winterschuh.png,Korrekt,Nicht_korrekt,Nicht_korrekt,images/objects/rodel.png,images/objects/winterschuh.png,,,,,,,
,,,,,,,999,2024-07-19_10h18.53.096,N_forgetting_curve,2023.1.3,Win32,60.24096386,e,main,images/scenes/fluss_mit_schnee.png,images/objects/schneeschuhe.png,images/objects/schneeschuhe.png,images/objects/eisscholle.png,images/objects/schneemobil.png,images/objects/eisscholle.png,3.6832,0,14,[0.1212962821677879],[-0.22037039862738717],images/objects/schneemobil.png,images/objects/eisscholle.png,0.121296282,-0.220370399,1,0,0,3.6832,image_middle,0,46,46,22,1,22,images/scenes/fluss_mit_schnee.png,images/objects/schneeschuhe.png,images/objects/schneeschuhe.png,images/objects/eisscholle.png,images/objects/schneemobil.png,Korrekt,Nicht_korrekt,Nicht_korrekt,images/objects/schneemobil.png,images/objects/eisscholle.png,,,,,,,
,,,,,,,999,2024-07-19_10h18.53.096,N_forgetting_curve,2023.1.3,Win32,60.24096386,e,main,images/scenes/brucke.png,images/objects/auto.png,images/objects/strassenbahn.png,images/objects/auto.png,images/objects/roller.png,images/objects/strassenbahn.png,2.4584,0,14,[-0.4249999788072374],[-0.19814816227665655],images/objects/roller.png,images/objects/strassenbahn.png,-0.424999979,-0.198148162,1,0,0,2.4584,image_left,0,47,47,7,1,7,images/scenes/brucke.png,images/objects/auto.png,images/objects/strassenbahn.png,images/objects/auto.png,images/objects/roller.png,Nicht_korrekt,Korrekt,Nicht_korrekt,images/objects/roller.png,images/objects/strassenbahn.png,,,,,,,
,,,,,,,999,2024-07-19_10h18.53.096,N_forgetting_curve,2023.1.3,Win32,60.24096386,e,main,images/scenes/rolltreppen.png,images/objects/fahrkarten.png,images/objects/flugzeug.png,images/objects/fahrkarten.png,images/objects/plakatsaule.png,images/objects/plakatsaule.png,3.6646,0,14,[0.6296296296296297],[-0.26666669492368344],images/objects/flugzeug.png,images/objects/plakatsaule.png,0.62962963,-0.266666695,1,0,0,3.6646,image_right,0,48,48,21,1,21,images/scenes/rolltreppen.png,images/objects/fahrkarten.png,images/objects/flugzeug.png,images/objects/fahrkarten.png,images/objects/plakatsaule.png,Nicht_korrekt,Korrekt,Nicht_korrekt,images/objects/flugzeug.png,images/objects/plakatsaule.png,,,,,,,
,,,,,,,999,2024-07-19_10h18.53.096,N_forgetting_curve,2023.1.3,Win32,60.24096386,e,main,images/scenes/bushaltestelle.png,images/objects/reisetasche.png,images/objects/kutsche.png,images/objects/schulbus.png,images/objects/reisetasche.png,images/objects/schulbus.png,1.7757,0,14,[0.0398148430718316],[-0.2037037037037037],images/objects/kutsche.png,images/objects/schulbus.png,0.039814843,-0.203703704,1,0,0,1.7757,image_middle,0,49,49,1,1,1,images/scenes/bushaltestelle.png,images/objects/reisetasche.png,images/objects/kutsche.png,images/objects/schulbus.png,images/objects/reisetasche.png,Nicht_korrekt,Nicht_korrekt,Korrekt,images/objects/kutsche.png,images/objects/schulbus.png,,,,,,,
,,,,,,,999,2024-07-19_10h18.53.096,N_forgetting_curve,2023.1.3,Win32,60.24096386,e,main,images/scenes/haus.png,images/objects/wasche.png,images/objects/gabel.png,images/objects/turmatte.png,images/objects/wasche.png,images/objects/turmatte.png,5.6228,0,14,[0.0398148430718316],[-0.2037037037037037],images/objects/gabel.png,images/objects/turmatte.png,0.039814843,-0.203703704,1,0,0,5.6228,image_middle,0,50,50,17,1,17,images/scenes/haus.png,images/objects/wasche.png,images/objects/gabel.png,images/objects/turmatte.png,images/objects/wasche.png,Nicht_korrekt,Nicht_korrekt,Korrekt,images/objects/gabel.png,images/objects/turmatte.png,,,,,,,
,,,,,,,999,2024-07-19_10h18.53.096,N_forgetting_curve,2023.1.3,Win32,60.24096386,e,main,images/scenes/hochbeet.png,images/objects/kurbis.png,images/objects/edelweiss.png,images/objects/kurbis.png,images/objects/radieschen.png,images/objects/kurbis.png,3.1154,1,15,[0.1185185467755353],[-0.18425927338776765],images/objects/edelweiss.png,images/objects/radieschen.png,0.118518547,-0.184259273,1,0,0,3.1154,image_middle,0,51,51,40,1,40,images/scenes/hochbeet.png,images/objects/kurbis.png,images/objects/edelweiss.png,images/objects/kurbis.png,images/objects/radieschen.png,Nicht_korrekt,Korrekt,Nicht_korrekt,images/objects/edelweiss.png,images/objects/radieschen.png,,,,,,,
,,,,,,,999,2024-07-19_10h18.53.096,N_forgetting_curve,2023.1.3,Win32,60.24096386,e,main,images/scenes/kinosaal.png,images/objects/overhead.png,images/objects/overhead.png,images/objects/scheinwerfer.png,images/objects/nachos.png,images/objects/scheinwerfer.png,1.7243,0,15,[0.1185185467755353],[-0.18425927338776765],images/objects/scheinwerfer.png,images/objects/nachos.png,0.118518547,-0.184259273,1,0,0,1.7243,image_middle,0,52,52,46,1,46,images/scenes/kinosaal.png,images/objects/overhead.png,images/objects/overhead.png,images/objects/scheinwerfer.png,images/objects/nachos.png,Korrekt,Nicht_korrekt,Nicht_korrekt,images/objects/scheinwerfer.png,images/objects/nachos.png,,,,,,,
,,,,,,,999,2024-07-19_10h18.53.096,N_forgetting_curve,2023.1.3,Win32,60.24096386,e,main,images/scenes/auto_innen.png,images/objects/einkaufstaschen.png,images/objects/schlosser.png,images/objects/einkaufstaschen.png,images/objects/kupplung.png,images/objects/kupplung.png,1.3591,0,15,[0.556481537995515],[-0.1537036895751953],images/objects/schlosser.png,images/objects/kupplung.png,0.556481538,-0.15370369,1,0,0,1.3591,image_right,0,53,53,55,1,55,images/scenes/auto_innen.png,images/objects/einkaufstaschen.png,images/objects/schlosser.png,images/objects/einkaufstaschen.png,images/objects/kupplung.png,Nicht_korrekt,Korrekt,Nicht_korrekt,images/objects/schlosser.png,images/objects/kupplung.png,,,,,,,
,,,,,,,999,2024-07-19_10h18.53.096,N_forgetting_curve,2023.1.3,Win32,60.24096386,e,main,images/scenes/altstadtcafe.png,images/objects/roller.png,images/objects/geige.png,images/objects/roller.png,images/objects/stehtisch.png,images/objects/geige.png,1.8835,0,15,[-0.5972222222222222],[-0.17870373196072048],images/objects/geige.png,images/objects/stehtisch.png,-0.597222222,-0.178703732,1,0,0,1.8835,image_left,0,54,54,34,1,34,images/scenes/altstadtcafe.png,images/objects/roller.png,images/objects/geige.png,images/objects/roller.png,images/objects/stehtisch.png,Nicht_korrekt,Korrekt,Nicht_korrekt,images/objects/geige.png,images/objects/stehtisch.png,,,,,,,
,,,,,,,999,2024-07-19_10h18.53.096,N_forgetting_curve,2023.1.3,Win32,60.24096386,e,main,images/scenes/supermarkt.png,images/objects/karotten.png,images/objects/karotten.png,images/objects/gabelstapler.png,images/objects/einkaufswagen.png,images/objects/karotten.png,0.9492,1,16,[-0.5972222222222222],[-0.17870373196072048],images/objects/gabelstapler.png,images/objects/einkaufswagen.png,-0.597222222,-0.178703732,1,0,0,0.9492,image_left,0,55,55,8,1,8,images/scenes/supermarkt.png,images/objects/karotten.png,images/objects/karotten.png,images/objects/gabelstapler.png,images/objects/einkaufswagen.png,Korrekt,Nicht_korrekt,Nicht_korrekt,images/objects/gabelstapler.png,images/objects/einkaufswagen.png,,,,,,,
,,,,,,,999,2024-07-19_10h18.53.096,N_forgetting_curve,2023.1.3,Win32,60.24096386,e,main,images/scenes/fitnessstudio.png,images/objects/fon.png,images/objects/gymnastikball.png,images/objects/schlusselbund.png,images/objects/fon.png,images/objects/gymnastikball.png,1.5004,0,16,[-0.5972222222222222],[-0.17870373196072048],images/objects/schlusselbund.png,images/objects/gymnastikball.png,-0.597222222,-0.178703732,1,0,0,1.5004,image_left,0,56,56,3,1,3,images/scenes/fitnessstudio.png,images/objects/fon.png,images/objects/gymnastikball.png,images/objects/schlusselbund.png,images/objects/fon.png,Nicht_korrekt,Nicht_korrekt,Korrekt,images/objects/schlusselbund.png,images/objects/gymnastikball.png,,,,,,,
,,,,,,,999,2024-07-19_10h18.53.096,N_forgetting_curve,2023.1.3,Win32,60.24096386,e,main,images/scenes/wochenmarkt.png,images/objects/milchkanne.png,images/objects/brot.png,images/objects/milchkanne.png,images/objects/kasse.png,images/objects/brot.png,3.0652,0,16,[-0.5972222222222222],[-0.17870373196072048],images/objects/kasse.png,images/objects/brot.png,-0.597222222,-0.178703732,1,0,0,3.0652,image_left,0,57,57,39,1,39,images/scenes/wochenmarkt.png,images/objects/milchkanne.png,images/objects/brot.png,images/objects/milchkanne.png,images/objects/kasse.png,Nicht_korrekt,Korrekt,Nicht_korrekt,images/objects/kasse.png,images/objects/brot.png,,,,,,,
,,,,,,,999,2024-07-19_10h18.53.096,N_forgetting_curve,2023.1.3,Win32,60.24096386,e,main,images/scenes/friseursalon.png,images/objects/zeitschriften.png,images/objects/stifte.png,images/objects/haarburste.png,images/objects/zeitschriften.png,images/objects/haarburste.png,3.5085,0,16,[0.11666665253815828],[-0.2259259400544343],images/objects/stifte.png,images/objects/haarburste.png,0.116666653,-0.22592594,1,0,0,3.5085,image_middle,0,58,58,52,1,52,images/scenes/friseursalon.png,images/objects/zeitschriften.png,images/objects/stifte.png,images/objects/haarburste.png,images/objects/zeitschriften.png,Nicht_korrekt,Nicht_korrekt,Korrekt,images/objects/stifte.png,images/objects/haarburste.png,,,,,,,
,,,,,,,999,2024-07-19_10h18.53.096,N_forgetting_curve,2023.1.3,Win32,60.24096386,e,main,images/scenes/strand.png,images/objects/schwimmflugel.png,images/objects/schwimmreifen.png,images/objects/schwimmflugel.png,images/objects/schlauchboot.png,images/objects/schlauchboot.png,2.35,0,16,[0.5601851851851852],[-0.2787036895751953],images/objects/schwimmreifen.png,images/objects/schlauchboot.png,0.560185185,-0.27870369,1,0,0,2.35,image_right,0,59,59,12,1,12,images/scenes/strand.png,images/objects/schwimmflugel.png,images/objects/schwimmreifen.png,images/objects/schwimmflugel.png,images/objects/schlauchboot.png,Nicht_korrekt,Korrekt,Nicht_korrekt,images/objects/schwimmreifen.png,images/objects/schlauchboot.png,,,,,,,
,,,,,,,999,2024-07-19_10h18.53.096,N_forgetting_curve,2023.1.3,Win32,60.24096386,,,,,,,,,,,,,,,,,,,,,,,,,,,,,,,,,,,,,,,0.801851908,0.021296289,1,0,0,2.4897,polygon
