mouse_1.x,mouse_1.y,mouse_1.leftButton,mouse_1.midButton,mouse_1.rightButton,mouse_1.time,mouse_1.clicked_name,participant,date,expName,psychopyVersion,OS,frameRate,condition,stage,scene,correct object,left option,middle option,right option,memory resp,memory rt,accuracy,score,x mouse,y mouse,internal lure,external lure,mouse.x,mouse.y,mouse.leftButton,mouse.midButton,mouse.rightButton,mouse.time,mouse.clicked_name,trials.thisRepN,trials.thisTrialN,trials.thisN,trials.thisIndex,trials.ran,Picture_Recognition,Picture_Recognition_2,Q1_l,Q1_m,Q1_r,Feedback_l,Feedback_m,Feedback_r,internal_lure,external_lure,mouse_3.x,mouse_3.y,mouse_3.leftButton,mouse_3.midButton,mouse_3.rightButton,mouse_3.time,mouse_3.clicked_name
-0.003703718,-0.262037065,1,0,0,25.6889,text_introduction_button,999,2024-06-30_23h13.31.593,E_forgetting_curve,2023.1.3,Win32,60.24096386,,,,,,,,,,,,,,,,,,,,,,,,,,,,,,,,,,,,,,,,,,,,
,,,,,,,999,2024-06-30_23h13.31.593,E_forgetting_curve,2023.1.3,Win32,60.24096386,e,main,images/scenes/umgekippter_schulbus.png,images/objects/erbrochenes.png,images/objects/blutiges_taschentuch.png,images/objects/erbrochenes.png,images/objects/kaputtes_handy.png,images/objects/kaputtes_handy.png,2.6211,0,0,[0.464814786557798],[-0.15925930164478444],images/objects/kaputtes_handy.png,images/objects/blutiges_taschentuch.png,0.464814787,-0.159259302,1,0,0,2.6211,image_right,0,0,0,48,1,images/scenes/umgekippter_schulbus.png,images/objects/erbrochenes.png,images/objects/blutiges_taschentuch.png,images/objects/erbrochenes.png,images/objects/kaputtes_handy.png,Nicht_korrekt,Korrekt,Nicht_korrekt,images/objects/kaputtes_handy.png,images/objects/blutiges_taschentuch.png,,,,,,,
,,,,,,,999,2024-06-30_23h13.31.593,E_forgetting_curve,2023.1.3,Win32,60.24096386,e,main,images/scenes/dunkler_wald.png,images/objects/satanischer_dolch.png,images/objects/satanischer_dolch.png,images/objects/blutige_axt.png,images/objects/kaputte_vogelscheuche.png,images/objects/blutige_axt.png,2.8651,0,0,[-0.04722220809371383],[-0.15925930164478444],images/objects/blutige_axt.png,images/objects/kaputte_vogelscheuche.png,-0.047222208,-0.159259302,1,0,0,2.8651,image_middle,0,1,1,41,1,images/scenes/dunkler_wald.png,images/objects/satanischer_dolch.png,images/objects/satanischer_dolch.png,images/objects/blutige_axt.png,images/objects/kaputte_vogelscheuche.png,Korrekt,Nicht_korrekt,Nicht_korrekt,images/objects/blutige_axt.png,images/objects/kaputte_vogelscheuche.png,,,,,,,
,,,,,,,999,2024-06-30_23h13.31.593,E_forgetting_curve,2023.1.3,Win32,60.24096386,e,main,images/scenes/vogelspinnenterrarium.png,images/objects/tote_ratte.png,images/objects/tote_ratte.png,images/objects/toter_frosch.png,images/objects/tote_schlange.png,images/objects/tote_ratte.png,2.9869,1,1,[-0.447222215157968],[-0.24814817640516493],images/objects/tote_schlange.png,images/objects/toter_frosch.png,-0.447222215,-0.248148176,1,0,0,2.9869,image_left,0,2,2,58,1,images/scenes/vogelspinnenterrarium.png,images/objects/tote_ratte.png,images/objects/tote_ratte.png,images/objects/toter_frosch.png,images/objects/tote_schlange.png,Korrekt,Nicht_korrekt,Nicht_korrekt,images/objects/tote_schlange.png,images/objects/toter_frosch.png,,,,,,,
,,,,,,,999,2024-06-30_23h13.31.593,E_forgetting_curve,2023.1.3,Win32,60.24096386,e,main,images/scenes/hirschjagd.png,images/objects/waffe.png,images/objects/flinte.png,images/objects/blutiger_schweinekopf.png,images/objects/waffe.png,images/objects/flinte.png,2.0815,0,1,[-0.4037036895751953],[-0.17870373196072048],images/objects/blutiger_schweinekopf.png,images/objects/flinte.png,-0.40370369,-0.178703732,1,0,0,2.0815,image_left,0,3,3,51,1,images/scenes/hirschjagd.png,images/objects/waffe.png,images/objects/flinte.png,images/objects/blutiger_schweinekopf.png,images/objects/waffe.png,Nicht_korrekt,Nicht_korrekt,Korrekt,images/objects/blutiger_schweinekopf.png,images/objects/flinte.png,,,,,,,
,,,,,,,999,2024-06-30_23h13.31.593,E_forgetting_curve,2023.1.3,Win32,60.24096386,e,main,images/scenes/verdorbene_fruchte.png,images/objects/biomulltonne.png,images/objects/fruchtfliegen.png,images/objects/schimmelnder_kuhlschrank.png,images/objects/biomulltonne.png,images/objects/schimmelnder_kuhlschrank.png,1.7323,0,1,[-0.09444441618742766],[-0.16574075486924914],images/objects/schimmelnder_kuhlschrank.png,images/objects/fruchtfliegen.png,-0.094444416,-0.165740755,1,0,0,1.7323,image_middle,0,4,4,33,1,images/scenes/verdorbene_fruchte.png,images/objects/biomulltonne.png,images/objects/fruchtfliegen.png,images/objects/schimmelnder_kuhlschrank.png,images/objects/biomulltonne.png,Nicht_korrekt,Nicht_korrekt,Korrekt,images/objects/schimmelnder_kuhlschrank.png,images/objects/fruchtfliegen.png,,,,,,,
,,,,,,,999,2024-06-30_23h13.31.593,E_forgetting_curve,2023.1.3,Win32,60.24096386,e,main,images/scenes/kaputter_krankenwagen.png,images/objects/verunfalltes_auto.png,images/objects/verunfalltes_auto.png,images/objects/blutiges_verbandszeug.png,images/objects/raucherlunge.png,images/objects/raucherlunge.png,2.0997,0,1,[0.47129638106734667],[-0.1388888888888889],images/objects/raucherlunge.png,images/objects/blutiges_verbandszeug.png,0.471296381,-0.138888889,1,0,0,2.0997,image_right,0,5,5,50,1,images/scenes/kaputter_krankenwagen.png,images/objects/verunfalltes_auto.png,images/objects/verunfalltes_auto.png,images/objects/blutiges_verbandszeug.png,images/objects/raucherlunge.png,Korrekt,Nicht_korrekt,Nicht_korrekt,images/objects/raucherlunge.png,images/objects/blutiges_verbandszeug.png,,,,,,,
,,,,,,,999,2024-06-30_23h13.31.593,E_forgetting_curve,2023.1.3,Win32,60.24096386,e,main,images/scenes/kkk_kreuzverbrennung.png,images/objects/blutiger_stacheldrahtkranz.png,images/objects/judenstern.png,images/objects/feuerstelle.png,images/objects/blutiger_stacheldrahtkranz.png,images/objects/blutiger_stacheldrahtkranz.png,3.1258,1,2,[0.5824074921784578],[-0.17962964375813803],images/objects/judenstern.png,images/objects/feuerstelle.png,0.582407492,-0.179629644,1,0,0,3.1258,image_right,0,6,6,52,1,images/scenes/kkk_kreuzverbrennung.png,images/objects/blutiger_stacheldrahtkranz.png,images/objects/judenstern.png,images/objects/feuerstelle.png,images/objects/blutiger_stacheldrahtkranz.png,Nicht_korrekt,Nicht_korrekt,Korrekt,images/objects/judenstern.png,images/objects/feuerstelle.png,,,,,,,
,,,,,,,999,2024-06-30_23h13.31.593,E_forgetting_curve,2023.1.3,Win32,60.24096386,e,main,images/scenes/zerstorte_gebaude.png,images/objects/zerbrochene_uhr.png,images/objects/kaputter_stuhl.png,images/objects/zerbrochene_uhr.png,images/objects/verbrannter_toaster.png,images/objects/verbrannter_toaster.png,2.3939,0,2,[0.5824074921784578],[-0.17962964375813803],images/objects/verbrannter_toaster.png,images/objects/kaputter_stuhl.png,0.582407492,-0.179629644,1,0,0,2.3939,image_right,0,7,7,16,1,images/scenes/zerstorte_gebaude.png,images/objects/zerbrochene_uhr.png,images/objects/kaputter_stuhl.png,images/objects/zerbrochene_uhr.png,images/objects/verbrannter_toaster.png,Nicht_korrekt,Korrekt,Nicht_korrekt,images/objects/verbrannter_toaster.png,images/objects/kaputter_stuhl.png,,,,,,,
,,,,,,,999,2024-06-30_23h13.31.593,E_forgetting_curve,2023.1.3,Win32,60.24096386,e,main,images/scenes/kaputter_zug.png,images/objects/kaputter_koffer.png,images/objects/kaputter_koffer.png,images/objects/verunfalltes_auto.png,images/objects/zerissene_kleider.png,images/objects/verunfalltes_auto.png,1.4987,0,2,[0.09814813401963976],[-0.17222220809371383],images/objects/verunfalltes_auto.png,images/objects/zerissene_kleider.png,0.098148134,-0.172222208,1,0,0,1.4987,image_middle,0,8,8,3,1,images/scenes/kaputter_zug.png,images/objects/kaputter_koffer.png,images/objects/kaputter_koffer.png,images/objects/verunfalltes_auto.png,images/objects/zerissene_kleider.png,Korrekt,Nicht_korrekt,Nicht_korrekt,images/objects/verunfalltes_auto.png,images/objects/zerissene_kleider.png,,,,,,,
,,,,,,,999,2024-06-30_23h13.31.593,E_forgetting_curve,2023.1.3,Win32,60.24096386,e,main,images/scenes/spinnweben_in_altem_auto.png,images/objects/fauler_zahn.png,images/objects/hexenhut.png,images/objects/kaputter_koffer.png,images/objects/fauler_zahn.png,images/objects/fauler_zahn.png,2.2592,1,3,[0.5370370370370371],[-0.16018521344220196],images/objects/kaputter_koffer.png,images/objects/hexenhut.png,0.537037037,-0.160185213,1,0,0,2.2592,image_right,0,9,9,21,1,images/scenes/spinnweben_in_altem_auto.png,images/objects/fauler_zahn.png,images/objects/hexenhut.png,images/objects/kaputter_koffer.png,images/objects/fauler_zahn.png,Nicht_korrekt,Nicht_korrekt,Korrekt,images/objects/kaputter_koffer.png,images/objects/hexenhut.png,,,,,,,
,,,,,,,999,2024-06-30_23h13.31.593,E_forgetting_curve,2023.1.3,Win32,60.24096386,e,main,images/scenes/tornado.png,images/objects/toter_fisch.png,images/objects/verbranntes_tier.png,images/objects/toter_fisch.png,images/objects/umgesturztes_mofa.png,images/objects/umgesturztes_mofa.png,1.3153,0,3,[0.4925925643355758],[-0.16666666666666666],images/objects/verbranntes_tier.png,images/objects/umgesturztes_mofa.png,0.492592564,-0.166666667,1,0,0,1.3153,image_right,0,10,10,54,1,images/scenes/tornado.png,images/objects/toter_fisch.png,images/objects/verbranntes_tier.png,images/objects/toter_fisch.png,images/objects/umgesturztes_mofa.png,Nicht_korrekt,Korrekt,Nicht_korrekt,images/objects/verbranntes_tier.png,images/objects/umgesturztes_mofa.png,,,,,,,
,,,,,,,999,2024-06-30_23h13.31.593,E_forgetting_curve,2023.1.3,Win32,60.24096386,e,main,images/scenes/absturzendes_flugzeug.png,images/objects/kaputtes_flugzeug.png,images/objects/kotztute.png,images/objects/kaputtes_flugzeug.png,images/objects/panzer.png,images/objects/kaputtes_flugzeug.png,1.4732,1,4,[0.13611115349663627],[-0.1611111252396195],images/objects/panzer.png,images/objects/kotztute.png,0.136111153,-0.161111125,1,0,0,1.4732,image_middle,0,11,11,23,1,images/scenes/absturzendes_flugzeug.png,images/objects/kaputtes_flugzeug.png,images/objects/kotztute.png,images/objects/kaputtes_flugzeug.png,images/objects/panzer.png,Nicht_korrekt,Korrekt,Nicht_korrekt,images/objects/panzer.png,images/objects/kotztute.png,,,,,,,
,,,,,,,999,2024-06-30_23h13.31.593,E_forgetting_curve,2023.1.3,Win32,60.24096386,e,main,images/scenes/dunkler_korridor.png,images/objects/gruselige_puppe.png,images/objects/gruselige_puppe.png,images/objects/tote_katze.png,images/objects/puppenkopf.png,images/objects/gruselige_puppe.png,2.6584,1,5,[-0.6175925819962113],[-0.20925924513075086],images/objects/puppenkopf.png,images/objects/tote_katze.png,-0.617592582,-0.209259245,1,0,0,2.6584,image_left,0,12,12,55,1,images/scenes/dunkler_korridor.png,images/objects/gruselige_puppe.png,images/objects/gruselige_puppe.png,images/objects/tote_katze.png,images/objects/puppenkopf.png,Korrekt,Nicht_korrekt,Nicht_korrekt,images/objects/puppenkopf.png,images/objects/tote_katze.png,,,,,,,
,,,,,,,999,2024-06-30_23h13.31.593,E_forgetting_curve,2023.1.3,Win32,60.24096386,e,main,images/scenes/unfallstelle.png,images/objects/sarg.png,images/objects/totenkopf.png,images/objects/dreckige_kinderflasche.png,images/objects/sarg.png,images/objects/dreckige_kinderflasche.png,1.8655,0,5,[-0.04444440205891927],[-0.14722223635073062],images/objects/totenkopf.png,images/objects/dreckige_kinderflasche.png,-0.044444402,-0.147222236,1,0,0,1.8655,image_middle,0,13,13,42,1,images/scenes/unfallstelle.png,images/objects/sarg.png,images/objects/totenkopf.png,images/objects/dreckige_kinderflasche.png,images/objects/sarg.png,Nicht_korrekt,Nicht_korrekt,Korrekt,images/objects/totenkopf.png,images/objects/dreckige_kinderflasche.png,,,,,,,
,,,,,,,999,2024-06-30_23h13.31.593,E_forgetting_curve,2023.1.3,Win32,60.24096386,e,main,images/scenes/brennender_lkw.png,images/objects/verbrannter_toaster.png,images/objects/verbrannter_toaster.png,images/objects/brennender_oltransporter.png,images/objects/kartusche.png,images/objects/verbrannter_toaster.png,2.3815,1,6,[-0.5851851922494394],[-0.18055555555555555],images/objects/brennender_oltransporter.png,images/objects/kartusche.png,-0.585185192,-0.180555556,1,0,0,2.3815,image_left,0,14,14,5,1,images/scenes/brennender_lkw.png,images/objects/verbrannter_toaster.png,images/objects/verbrannter_toaster.png,images/objects/brennender_oltransporter.png,images/objects/kartusche.png,Korrekt,Nicht_korrekt,Nicht_korrekt,images/objects/brennender_oltransporter.png,images/objects/kartusche.png,,,,,,,
,,,,,,,999,2024-06-30_23h13.31.593,E_forgetting_curve,2023.1.3,Win32,60.24096386,e,main,images/scenes/tsunami.png,images/objects/kaputter_burostuhl.png,images/objects/kaputter_burostuhl.png,images/objects/zerbrochene_uhr.png,images/objects/durchnasster_fussball.png,images/objects/zerbrochene_uhr.png,0.7757,0,6,[-0.13981480068630642],[-0.21203705116554541],images/objects/zerbrochene_uhr.png,images/objects/durchnasster_fussball.png,-0.139814801,-0.212037051,1,0,0,0.7757,image_middle,0,15,15,1,1,images/scenes/tsunami.png,images/objects/kaputter_burostuhl.png,images/objects/kaputter_burostuhl.png,images/objects/zerbrochene_uhr.png,images/objects/durchnasster_fussball.png,Korrekt,Nicht_korrekt,Nicht_korrekt,images/objects/zerbrochene_uhr.png,images/objects/durchnasster_fussball.png,,,,,,,
,,,,,,,999,2024-06-30_23h13.31.593,E_forgetting_curve,2023.1.3,Win32,60.24096386,e,main,images/scenes/brennende_twin_towers.png,images/objects/loschfahrzeug.png,images/objects/loschfahrzeug.png,images/objects/gasmaske.png,images/objects/essensreste.png,images/objects/essensreste.png,0.8925,0,6,[0.4398148148148148],[-0.2574074356644242],images/objects/gasmaske.png,images/objects/essensreste.png,0.439814815,-0.257407436,1,0,0,0.8925,image_right,0,16,16,44,1,images/scenes/brennende_twin_towers.png,images/objects/loschfahrzeug.png,images/objects/loschfahrzeug.png,images/objects/gasmaske.png,images/objects/essensreste.png,Korrekt,Nicht_korrekt,Nicht_korrekt,images/objects/gasmaske.png,images/objects/essensreste.png,,,,,,,
,,,,,,,999,2024-06-30_23h13.31.593,E_forgetting_curve,2023.1.3,Win32,60.24096386,e,main,images/scenes/folterkammer.png,images/objects/stachliger_baseballschlager.png,images/objects/satanischer_dolch.png,images/objects/stachliger_baseballschlager.png,images/objects/mundsperre.png,images/objects/stachliger_baseballschlager.png,0.8155,1,7,[0.017592606721100985],[-0.24907408820258248],images/objects/satanischer_dolch.png,images/objects/mundsperre.png,0.017592607,-0.249074088,1,0,0,0.8155,image_middle,0,17,17,20,1,images/scenes/folterkammer.png,images/objects/stachliger_baseballschlager.png,images/objects/satanischer_dolch.png,images/objects/stachliger_baseballschlager.png,images/objects/mundsperre.png,Nicht_korrekt,Korrekt,Nicht_korrekt,images/objects/satanischer_dolch.png,images/objects/mundsperre.png,,,,,,,
,,,,,,,999,2024-06-30_23h13.31.593,E_forgetting_curve,2023.1.3,Win32,60.24096386,e,main,images/scenes/tote_fische.png,images/objects/blutige_messer.png,images/objects/harpune.png,images/objects/toter_seevogel.png,images/objects/blutige_messer.png,images/objects/harpune.png,1.2816,0,7,[-0.47314813401963973],[-0.232407393278899],images/objects/toter_seevogel.png,images/objects/harpune.png,-0.473148134,-0.232407393,1,0,0,1.2816,image_left,0,18,18,17,1,images/scenes/tote_fische.png,images/objects/blutige_messer.png,images/objects/harpune.png,images/objects/toter_seevogel.png,images/objects/blutige_messer.png,Nicht_korrekt,Nicht_korrekt,Korrekt,images/objects/toter_seevogel.png,images/objects/harpune.png,,,,,,,
,,,,,,,999,2024-06-30_23h13.31.593,E_forgetting_curve,2023.1.3,Win32,60.24096386,e,main,images/scenes/pentagramm.png,images/objects/galgen.png,images/objects/blutiger_stacheldrahtkranz.png,images/objects/galgen.png,images/objects/tarotkarten.png,images/objects/galgen.png,0.7757,1,8,[-0.20092589766890914],[-0.21851850439001014],images/objects/blutiger_stacheldrahtkranz.png,images/objects/tarotkarten.png,-0.200925898,-0.218518504,1,0,0,0.7757,image_middle,0,19,19,56,1,images/scenes/pentagramm.png,images/objects/galgen.png,images/objects/blutiger_stacheldrahtkranz.png,images/objects/galgen.png,images/objects/tarotkarten.png,Nicht_korrekt,Korrekt,Nicht_korrekt,images/objects/blutiger_stacheldrahtkranz.png,images/objects/tarotkarten.png,,,,,,,
,,,,,,,999,2024-06-30_23h13.31.593,E_forgetting_curve,2023.1.3,Win32,60.24096386,e,main,images/scenes/mulldeponie.png,images/objects/besitz_eines_obdachlosen.png,images/objects/brennendes_motorrad.png,images/objects/besitz_eines_obdachlosen.png,images/objects/radioaktiver_mull.png,images/objects/besitz_eines_obdachlosen.png,0.4989,1,9,[0.004629629629629629],[-0.1935185326470269],images/objects/radioaktiver_mull.png,images/objects/brennendes_motorrad.png,0.00462963,-0.193518533,1,0,0,0.4989,image_middle,0,20,20,37,1,images/scenes/mulldeponie.png,images/objects/besitz_eines_obdachlosen.png,images/objects/brennendes_motorrad.png,images/objects/besitz_eines_obdachlosen.png,images/objects/radioaktiver_mull.png,Nicht_korrekt,Korrekt,Nicht_korrekt,images/objects/radioaktiver_mull.png,images/objects/brennendes_motorrad.png,,,,,,,
,,,,,,,999,2024-06-30_23h13.31.593,E_forgetting_curve,2023.1.3,Win32,60.24096386,e,main,images/scenes/gefangniszelle.png,images/objects/kakerlake.png,images/objects/kakerlake.png,images/objects/verdrecktes_waschbecken.png,images/objects/fixierung.png,images/objects/verdrecktes_waschbecken.png,0.6318,0,9,[0.004629629629629629],[-0.19444444444444445],images/objects/verdrecktes_waschbecken.png,images/objects/fixierung.png,0.00462963,-0.194444444,1,0,0,0.6318,image_middle,0,21,21,27,1,images/scenes/gefangniszelle.png,images/objects/kakerlake.png,images/objects/kakerlake.png,images/objects/verdrecktes_waschbecken.png,images/objects/fixierung.png,Korrekt,Nicht_korrekt,Nicht_korrekt,images/objects/verdrecktes_waschbecken.png,images/objects/fixierung.png,,,,,,,
,,,,,,,999,2024-06-30_23h13.31.593,E_forgetting_curve,2023.1.3,Win32,60.24096386,e,main,images/scenes/verlassenes_haus_im_wald.png,images/objects/blutige_sage.png,images/objects/voodoo_puppe.png,images/objects/blutige_sage.png,images/objects/waffe.png,images/objects/blutige_sage.png,1.7912,1,10,[0.004629629629629629],[-0.19444444444444445],images/objects/waffe.png,images/objects/voodoo_puppe.png,0.00462963,-0.194444444,1,0,0,1.7912,image_middle,0,22,22,31,1,images/scenes/verlassenes_haus_im_wald.png,images/objects/blutige_sage.png,images/objects/voodoo_puppe.png,images/objects/blutige_sage.png,images/objects/waffe.png,Nicht_korrekt,Korrekt,Nicht_korrekt,images/objects/waffe.png,images/objects/voodoo_puppe.png,,,,,,,
,,,,,,,999,2024-06-30_23h13.31.593,E_forgetting_curve,2023.1.3,Win32,60.24096386,e,main,images/scenes/zahnarztpraxis.png,images/objects/op_besteck.png,images/objects/op_besteck.png,images/objects/absauggerat.png,images/objects/kakerlake.png,images/objects/absauggerat.png,0.9252,0,10,[0.004629629629629629],[-0.19444444444444445],images/objects/kakerlake.png,images/objects/absauggerat.png,0.00462963,-0.194444444,1,0,0,0.9252,image_middle,0,23,23,35,1,images/scenes/zahnarztpraxis.png,images/objects/op_besteck.png,images/objects/op_besteck.png,images/objects/absauggerat.png,images/objects/kakerlake.png,Korrekt,Nicht_korrekt,Nicht_korrekt,images/objects/kakerlake.png,images/objects/absauggerat.png,,,,,,,
,,,,,,,999,2024-06-30_23h13.31.593,E_forgetting_curve,2023.1.3,Win32,60.24096386,e,main,images/scenes/olverschmutzung.png,images/objects/tote_kuh.png,images/objects/tote_schildkrote.png,images/objects/tote_kuh.png,images/objects/umgekipptes_fass.png,images/objects/tote_schildkrote.png,0.7792,0,10,[-0.5564814673529731],[-0.19999998587149162],images/objects/tote_schildkrote.png,images/objects/umgekipptes_fass.png,-0.556481467,-0.199999986,1,0,0,0.7792,image_left,0,24,24,36,1,images/scenes/olverschmutzung.png,images/objects/tote_kuh.png,images/objects/tote_schildkrote.png,images/objects/tote_kuh.png,images/objects/umgekipptes_fass.png,Nicht_korrekt,Korrekt,Nicht_korrekt,images/objects/tote_schildkrote.png,images/objects/umgekipptes_fass.png,,,,,,,
,,,,,,,999,2024-06-30_23h13.31.593,E_forgetting_curve,2023.1.3,Win32,60.24096386,e,main,images/scenes/konzentrationslager.png,images/objects/gasmaske.png,images/objects/galgen.png,images/objects/gasmaske.png,images/objects/haftlingskleidung.png,images/objects/gasmaske.png,0.6087,1,11,[-0.06666663840964988],[-0.2037037037037037],images/objects/galgen.png,images/objects/haftlingskleidung.png,-0.066666638,-0.203703704,1,0,0,0.6087,image_middle,0,25,25,49,1,images/scenes/konzentrationslager.png,images/objects/gasmaske.png,images/objects/galgen.png,images/objects/gasmaske.png,images/objects/haftlingskleidung.png,Nicht_korrekt,Korrekt,Nicht_korrekt,images/objects/galgen.png,images/objects/haftlingskleidung.png,,,,,,,
,,,,,,,999,2024-06-30_23h13.31.593,E_forgetting_curve,2023.1.3,Win32,60.24096386,e,main,images/scenes/blutiges_bett.png,images/objects/blutige_axt.png,images/objects/stachliger_baseballschlager.png,images/objects/mauseschadel.png,images/objects/blutige_axt.png,images/objects/mauseschadel.png,0.5823,0,11,[-0.06666663840964988],[-0.2037037037037037],images/objects/stachliger_baseballschlager.png,images/objects/mauseschadel.png,-0.066666638,-0.203703704,1,0,0,0.5823,image_middle,0,26,26,46,1,images/scenes/blutiges_bett.png,images/objects/blutige_axt.png,images/objects/stachliger_baseballschlager.png,images/objects/mauseschadel.png,images/objects/blutige_axt.png,Nicht_korrekt,Nicht_korrekt,Korrekt,images/objects/stachliger_baseballschlager.png,images/objects/mauseschadel.png,,,,,,,
,,,,,,,999,2024-06-30_23h13.31.593,E_forgetting_curve,2023.1.3,Win32,60.24096386,e,main,images/scenes/haus_nach_erdbeben.png,images/objects/puppenkopf.png,images/objects/puppenkopf.png,images/objects/verwahrloste_katze.png,images/objects/kaputter_burostuhl.png,images/objects/kaputter_burostuhl.png,0.5005,0,11,[0.4148148430718316],[-0.1527777777777778],images/objects/kaputter_burostuhl.png,images/objects/verwahrloste_katze.png,0.414814843,-0.152777778,1,0,0,0.5005,image_right,0,27,27,7,1,images/scenes/haus_nach_erdbeben.png,images/objects/puppenkopf.png,images/objects/puppenkopf.png,images/objects/verwahrloste_katze.png,images/objects/kaputter_burostuhl.png,Korrekt,Nicht_korrekt,Nicht_korrekt,images/objects/kaputter_burostuhl.png,images/objects/verwahrloste_katze.png,,,,,,,
,,,,,,,999,2024-06-30_23h13.31.593,E_forgetting_curve,2023.1.3,Win32,60.24096386,e,main,images/scenes/kerzen_am_boden.png,images/objects/blutiger_kinderschuh.png,images/objects/friedhofsstatue.png,images/objects/blutiger_kinderschuh.png,images/objects/verdreckte_kinderkleidung.png,images/objects/verdreckte_kinderkleidung.png,0.6004,0,11,[0.4148148430718316],[-0.1527777777777778],images/objects/friedhofsstatue.png,images/objects/verdreckte_kinderkleidung.png,0.414814843,-0.152777778,1,0,0,0.6004,image_right,0,28,28,12,1,images/scenes/kerzen_am_boden.png,images/objects/blutiger_kinderschuh.png,images/objects/friedhofsstatue.png,images/objects/blutiger_kinderschuh.png,images/objects/verdreckte_kinderkleidung.png,Nicht_korrekt,Korrekt,Nicht_korrekt,images/objects/friedhofsstatue.png,images/objects/verdreckte_kinderkleidung.png,,,,,,,
,,,,,,,999,2024-06-30_23h13.31.593,E_forgetting_curve,2023.1.3,Win32,60.24096386,e,main,images/scenes/schimmel_auf_wand.png,images/objects/schimmelnder_kuhlschrank.png,images/objects/nasse_matratze.png,images/objects/schimmelnder_kuhlschrank.png,images/objects/kaputte_rohrleitung.png,images/objects/nasse_matratze.png,1.8588,0,11,[-0.447222215157968],[-0.11388891714590567],images/objects/nasse_matratze.png,images/objects/kaputte_rohrleitung.png,-0.447222215,-0.113888917,1,0,0,1.8588,image_left,0,29,29,59,1,images/scenes/schimmel_auf_wand.png,images/objects/schimmelnder_kuhlschrank.png,images/objects/nasse_matratze.png,images/objects/schimmelnder_kuhlschrank.png,images/objects/kaputte_rohrleitung.png,Nicht_korrekt,Korrekt,Nicht_korrekt,images/objects/nasse_matratze.png,images/objects/kaputte_rohrleitung.png,,,,,,,
,,,,,,,999,2024-06-30_23h13.31.593,E_forgetting_curve,2023.1.3,Win32,60.24096386,e,main,images/scenes/verwahrlostes_badezimmer.png,images/objects/verschmutztes_wc.png,images/objects/spinne.png,images/objects/verschmutztes_wc.png,images/objects/verschutteter_kaffee.png,images/objects/verschmutztes_wc.png,1.0668,1,12,[-0.04722220809371383],[-0.14629632455331307],images/objects/verschutteter_kaffee.png,images/objects/spinne.png,-0.047222208,-0.146296325,1,0,0,1.0668,image_middle,0,30,30,29,1,images/scenes/verwahrlostes_badezimmer.png,images/objects/verschmutztes_wc.png,images/objects/spinne.png,images/objects/verschmutztes_wc.png,images/objects/verschutteter_kaffee.png,Nicht_korrekt,Korrekt,Nicht_korrekt,images/objects/verschutteter_kaffee.png,images/objects/spinne.png,,,,,,,
,,,,,,,999,2024-06-30_23h13.31.593,E_forgetting_curve,2023.1.3,Win32,60.24096386,e,main,images/scenes/uberschwemmung.png,images/objects/kaputtes_sofa.png,images/objects/rettungsboot.png,images/objects/kaputtes_sofa.png,images/objects/dreckiger_teddy.png,images/objects/kaputtes_sofa.png,1.0652,1,13,[0.04444447270146123],[-0.20833333333333334],images/objects/dreckiger_teddy.png,images/objects/rettungsboot.png,0.044444473,-0.208333333,1,0,0,1.0652,image_middle,0,31,31,4,1,images/scenes/uberschwemmung.png,images/objects/kaputtes_sofa.png,images/objects/rettungsboot.png,images/objects/kaputtes_sofa.png,images/objects/dreckiger_teddy.png,Nicht_korrekt,Korrekt,Nicht_korrekt,images/objects/dreckiger_teddy.png,images/objects/rettungsboot.png,,,,,,,
,,,,,,,999,2024-06-30_23h13.31.593,E_forgetting_curve,2023.1.3,Win32,60.24096386,e,main,images/scenes/unfallstelle_autobahn.png,images/objects/motorraduberreste.png,images/objects/erbrochenes.png,images/objects/zerfetzter_autoreifen.png,images/objects/motorraduberreste.png,images/objects/motorraduberreste.png,1.5987,1,14,[0.5240741305881076],[-0.24537037037037038],images/objects/erbrochenes.png,images/objects/zerfetzter_autoreifen.png,0.524074131,-0.24537037,1,0,0,1.5987,image_right,0,32,32,22,1,images/scenes/unfallstelle_autobahn.png,images/objects/motorraduberreste.png,images/objects/erbrochenes.png,images/objects/zerfetzter_autoreifen.png,images/objects/motorraduberreste.png,Nicht_korrekt,Nicht_korrekt,Korrekt,images/objects/erbrochenes.png,images/objects/zerfetzter_autoreifen.png,,,,,,,
,,,,,,,999,2024-06-30_23h13.31.593,E_forgetting_curve,2023.1.3,Win32,60.24096386,e,main,images/scenes/kuchenbrand.png,images/objects/dreckiger_teddy.png,images/objects/dreckiger_teddy.png,images/objects/kanister_entzundlich.png,images/objects/verbrannte_pfanne.png,images/objects/kanister_entzundlich.png,1.9989,0,14,[0.20648150973849827],[-0.17407410233109086],images/objects/kanister_entzundlich.png,images/objects/verbrannte_pfanne.png,0.20648151,-0.174074102,1,0,0,1.9989,image_middle,0,33,33,19,1,images/scenes/kuchenbrand.png,images/objects/dreckiger_teddy.png,images/objects/dreckiger_teddy.png,images/objects/kanister_entzundlich.png,images/objects/verbrannte_pfanne.png,Korrekt,Nicht_korrekt,Nicht_korrekt,images/objects/kanister_entzundlich.png,images/objects/verbrannte_pfanne.png,,,,,,,
,,,,,,,999,2024-06-30_23h13.31.593,E_forgetting_curve,2023.1.3,Win32,60.24096386,e,main,images/scenes/schlangeninsel.png,images/objects/armbrust.png,images/objects/atemschutzmaske.png,images/objects/tote_giraffe.png,images/objects/armbrust.png,images/objects/tote_giraffe.png,1.0655,0,14,[0.20648150973849827],[-0.17407410233109086],images/objects/tote_giraffe.png,images/objects/atemschutzmaske.png,0.20648151,-0.174074102,1,0,0,1.0655,image_middle,0,34,34,45,1,images/scenes/schlangeninsel.png,images/objects/armbrust.png,images/objects/atemschutzmaske.png,images/objects/tote_giraffe.png,images/objects/armbrust.png,Nicht_korrekt,Nicht_korrekt,Korrekt,images/objects/tote_giraffe.png,images/objects/atemschutzmaske.png,,,,,,,
,,,,,,,999,2024-06-30_23h13.31.593,E_forgetting_curve,2023.1.3,Win32,60.24096386,e,main,images/scenes/krieg_mit_panzer.png,images/objects/brennende_fackel.png,images/objects/tarnkleidung.png,images/objects/brennende_fackel.png,images/objects/kaputtes_flugzeug.png,images/objects/kaputtes_flugzeug.png,0.8761,0,14,[0.4518518801088686],[-0.19907407407407407],images/objects/kaputtes_flugzeug.png,images/objects/tarnkleidung.png,0.45185188,-0.199074074,1,0,0,0.8761,image_right,0,35,35,11,1,images/scenes/krieg_mit_panzer.png,images/objects/brennende_fackel.png,images/objects/tarnkleidung.png,images/objects/brennende_fackel.png,images/objects/kaputtes_flugzeug.png,Nicht_korrekt,Korrekt,Nicht_korrekt,images/objects/kaputtes_flugzeug.png,images/objects/tarnkleidung.png,,,,,,,
,,,,,,,999,2024-06-30_23h13.31.593,E_forgetting_curve,2023.1.3,Win32,60.24096386,e,main,images/scenes/brennende_bohrinsel.png,images/objects/kanister_entzundlich.png,images/objects/loschfahrzeug.png,images/objects/ollache.png,images/objects/kanister_entzundlich.png,images/objects/loschfahrzeug.png,1.3648,0,14,[-0.5055555414270472],[-0.11296300534848813],images/objects/loschfahrzeug.png,images/objects/ollache.png,-0.505555541,-0.112963005,1,0,0,1.3648,image_left,0,36,36,6,1,images/scenes/brennende_bohrinsel.png,images/objects/kanister_entzundlich.png,images/objects/loschfahrzeug.png,images/objects/ollache.png,images/objects/kanister_entzundlich.png,Nicht_korrekt,Nicht_korrekt,Korrekt,images/objects/loschfahrzeug.png,images/objects/ollache.png,,,,,,,
,,,,,,,999,2024-06-30_23h13.31.593,E_forgetting_curve,2023.1.3,Win32,60.24096386,e,main,images/scenes/kanalisation.png,images/objects/tote_schlange.png,images/objects/brandwunde.png,images/objects/tote_schlange.png,images/objects/fauler_zahn.png,images/objects/brandwunde.png,1.4756,0,14,[-0.6212962998284234],[-0.2629629770914714],images/objects/fauler_zahn.png,images/objects/brandwunde.png,-0.6212963,-0.262962977,1,0,0,1.4756,image_left,0,37,37,43,1,images/scenes/kanalisation.png,images/objects/tote_schlange.png,images/objects/brandwunde.png,images/objects/tote_schlange.png,images/objects/fauler_zahn.png,Nicht_korrekt,Korrekt,Nicht_korrekt,images/objects/fauler_zahn.png,images/objects/brandwunde.png,,,,,,,
,,,,,,,999,2024-06-30_23h13.31.593,E_forgetting_curve,2023.1.3,Win32,60.24096386,e,main,images/scenes/verlassenes_haus.png,images/objects/totenkopf.png,images/objects/tiergebiss.png,images/objects/messer.png,images/objects/totenkopf.png,images/objects/totenkopf.png,1.4541,1,15,[0.5944444161874277],[-0.2333333757188585],images/objects/messer.png,images/objects/tiergebiss.png,0.594444416,-0.233333376,1,0,0,1.4541,image_right,0,38,38,30,1,images/scenes/verlassenes_haus.png,images/objects/totenkopf.png,images/objects/tiergebiss.png,images/objects/messer.png,images/objects/totenkopf.png,Nicht_korrekt,Nicht_korrekt,Korrekt,images/objects/messer.png,images/objects/tiergebiss.png,,,,,,,
,,,,,,,999,2024-06-30_23h13.31.593,E_forgetting_curve,2023.1.3,Win32,60.24096386,e,main,images/scenes/schlafplatz_obdachlose.png,images/objects/nasse_matratze.png,images/objects/tablettenverpackungen.png,images/objects/nasse_matratze.png,images/objects/kaputtes_sofa.png,images/objects/nasse_matratze.png,1.1589,1,16,[-0.027777777777777776],[-0.17500001412850838],images/objects/kaputtes_sofa.png,images/objects/tablettenverpackungen.png,-0.027777778,-0.175000014,1,0,0,1.1589,image_middle,0,39,39,40,1,images/scenes/schlafplatz_obdachlose.png,images/objects/nasse_matratze.png,images/objects/tablettenverpackungen.png,images/objects/nasse_matratze.png,images/objects/kaputtes_sofa.png,Nicht_korrekt,Korrekt,Nicht_korrekt,images/objects/kaputtes_sofa.png,images/objects/tablettenverpackungen.png,,,,,,,
,,,,,,,999,2024-06-30_23h13.31.593,E_forgetting_curve,2023.1.3,Win32,60.24096386,e,main,images/scenes/dreckige_kuche.png,images/objects/schimmelnde_erdbeere.png,images/objects/schimmelndes_brot.png,images/objects/schimmelnde_erdbeere.png,images/objects/dreckige_tasse.png,images/objects/dreckige_tasse.png,1.0589,0,16,[0.47500002825701676],[-0.19259262084960938],images/objects/schimmelndes_brot.png,images/objects/dreckige_tasse.png,0.475000028,-0.192592621,1,0,0,1.0589,image_right,0,40,40,32,1,images/scenes/dreckige_kuche.png,images/objects/schimmelnde_erdbeere.png,images/objects/schimmelndes_brot.png,images/objects/schimmelnde_erdbeere.png,images/objects/dreckige_tasse.png,Nicht_korrekt,Korrekt,Nicht_korrekt,images/objects/schimmelndes_brot.png,images/objects/dreckige_tasse.png,,,,,,,
,,,,,,,999,2024-06-30_23h13.31.593,E_forgetting_curve,2023.1.3,Win32,60.24096386,e,main,images/scenes/massengrab.png,images/objects/judenstern.png,images/objects/judenstern.png,images/objects/gebeine.png,images/objects/brennende_fackel.png,images/objects/gebeine.png,0.9834,0,16,[0.15648149560998986],[-0.17777782016330296],images/objects/brennende_fackel.png,images/objects/gebeine.png,0.156481496,-0.17777782,1,0,0,0.9834,image_middle,0,41,41,53,1,images/scenes/massengrab.png,images/objects/judenstern.png,images/objects/judenstern.png,images/objects/gebeine.png,images/objects/brennende_fackel.png,Korrekt,Nicht_korrekt,Nicht_korrekt,images/objects/brennende_fackel.png,images/objects/gebeine.png,,,,,,,
,,,,,,,999,2024-06-30_23h13.31.593,E_forgetting_curve,2023.1.3,Win32,60.24096386,e,main,images/scenes/friedhof.png,images/objects/friedhofsstatue.png,images/objects/friedhofsstatue.png,images/objects/urne.png,images/objects/gruselige_puppe.png,images/objects/friedhofsstatue.png,1.2832,1,17,[-0.4749999929357458],[-0.14629632455331307],images/objects/gruselige_puppe.png,images/objects/urne.png,-0.474999993,-0.146296325,1,0,0,1.2832,image_left,0,42,42,0,1,images/scenes/friedhof.png,images/objects/friedhofsstatue.png,images/objects/friedhofsstatue.png,images/objects/urne.png,images/objects/gruselige_puppe.png,Korrekt,Nicht_korrekt,Nicht_korrekt,images/objects/gruselige_puppe.png,images/objects/urne.png,,,,,,,
,,,,,,,999,2024-06-30_23h13.31.593,E_forgetting_curve,2023.1.3,Win32,60.24096386,e,main,images/scenes/krieg_mit_soldaten.png,images/objects/morserbombe.png,images/objects/gewehrriemen.png,images/objects/armbrust.png,images/objects/morserbombe.png,images/objects/armbrust.png,1.7315,0,17,[-0.07777779190628617],[-0.17037038449887876],images/objects/armbrust.png,images/objects/gewehrriemen.png,-0.077777792,-0.170370384,1,0,0,1.7315,image_middle,0,43,43,13,1,images/scenes/krieg_mit_soldaten.png,images/objects/morserbombe.png,images/objects/gewehrriemen.png,images/objects/armbrust.png,images/objects/morserbombe.png,Nicht_korrekt,Nicht_korrekt,Korrekt,images/objects/armbrust.png,images/objects/gewehrriemen.png,,,,,,,
,,,,,,,999,2024-06-30_23h13.31.593,E_forgetting_curve,2023.1.3,Win32,60.24096386,e,main,images/scenes/op_saal.png,images/objects/blutspritze.png,images/objects/blutspritze.png,images/objects/tabletten.png,images/objects/blutige_schere.png,images/objects/blutige_schere.png,2.757,0,17,[0.4870370935510706],[-0.19537035624186197],images/objects/blutige_schere.png,images/objects/tabletten.png,0.487037094,-0.195370356,1,0,0,2.757,image_right,0,44,44,14,1,images/scenes/op_saal.png,images/objects/blutspritze.png,images/objects/blutspritze.png,images/objects/tabletten.png,images/objects/blutige_schere.png,Korrekt,Nicht_korrekt,Nicht_korrekt,images/objects/blutige_schere.png,images/objects/tabletten.png,,,,,,,
,,,,,,,999,2024-06-30_23h13.31.593,E_forgetting_curve,2023.1.3,Win32,60.24096386,e,main,images/scenes/offentliche_toilette.png,images/objects/verdrecktes_waschbecken.png,images/objects/ampullen.png,images/objects/biomulltonne.png,images/objects/verdrecktes_waschbecken.png,images/objects/biomulltonne.png,1.0837,0,17,[0.011111153496636285],[-0.27314814814814814],images/objects/biomulltonne.png,images/objects/ampullen.png,0.011111153,-0.273148148,1,0,0,1.0837,image_middle,0,45,45,39,1,images/scenes/offentliche_toilette.png,images/objects/verdrecktes_waschbecken.png,images/objects/ampullen.png,images/objects/biomulltonne.png,images/objects/verdrecktes_waschbecken.png,Nicht_korrekt,Nicht_korrekt,Korrekt,images/objects/biomulltonne.png,images/objects/ampullen.png,,,,,,,
,,,,,,,999,2024-06-30_23h13.31.593,E_forgetting_curve,2023.1.3,Win32,60.24096386,e,main,images/scenes/vermullter_fluss.png,images/objects/toter_seevogel.png,images/objects/toter_seevogel.png,images/objects/besitz_eines_obdachlosen.png,images/objects/abfallcontainer.png,images/objects/besitz_eines_obdachlosen.png,0.6655,0,17,[0.011111153496636285],[-0.27314814814814814],images/objects/besitz_eines_obdachlosen.png,images/objects/abfallcontainer.png,0.011111153,-0.273148148,1,0,0,0.6655,image_middle,0,46,46,25,1,images/scenes/vermullter_fluss.png,images/objects/toter_seevogel.png,images/objects/toter_seevogel.png,images/objects/besitz_eines_obdachlosen.png,images/objects/abfallcontainer.png,Korrekt,Nicht_korrekt,Nicht_korrekt,images/objects/besitz_eines_obdachlosen.png,images/objects/abfallcontainer.png,,,,,,,
,,,,,,,999,2024-06-30_23h13.31.593,E_forgetting_curve,2023.1.3,Win32,60.24096386,e,main,images/scenes/waldbrand.png,images/objects/brennender_oltransporter.png,images/objects/tote_kuh.png,images/objects/feuerwehrschlauch.png,images/objects/brennender_oltransporter.png,images/objects/tote_kuh.png,0.9077,0,17,[-0.5379629488344546],[-0.25462962962962965],images/objects/tote_kuh.png,images/objects/feuerwehrschlauch.png,-0.537962949,-0.25462963,1,0,0,0.9077,image_left,0,47,47,24,1,images/scenes/waldbrand.png,images/objects/brennender_oltransporter.png,images/objects/tote_kuh.png,images/objects/feuerwehrschlauch.png,images/objects/brennender_oltransporter.png,Nicht_korrekt,Nicht_korrekt,Korrekt,images/objects/tote_kuh.png,images/objects/feuerwehrschlauch.png,,,,,,,
,,,,,,,999,2024-06-30_23h13.31.593,E_forgetting_curve,2023.1.3,Win32,60.24096386,e,main,images/scenes/achterbahnunfall.png,images/objects/kaputtes_handy.png,images/objects/gebrochener_arm.png,images/objects/sarg.png,images/objects/kaputtes_handy.png,images/objects/sarg.png,1.1651,0,17,[0.025925954182942707],[-0.15925930164478444],images/objects/sarg.png,images/objects/gebrochener_arm.png,0.025925954,-0.159259302,1,0,0,1.1651,image_middle,0,48,48,57,1,images/scenes/achterbahnunfall.png,images/objects/kaputtes_handy.png,images/objects/gebrochener_arm.png,images/objects/sarg.png,images/objects/kaputtes_handy.png,Nicht_korrekt,Nicht_korrekt,Korrekt,images/objects/sarg.png,images/objects/gebrochener_arm.png,,,,,,,
,,,,,,,999,2024-06-30_23h13.31.593,E_forgetting_curve,2023.1.3,Win32,60.24096386,e,main,images/scenes/intensivstation.png,images/objects/blutige_schere.png,images/objects/blutige_schere.png,images/objects/blutspritze.png,images/objects/uberwachungsmonitor.png,images/objects/uberwachungsmonitor.png,0.8899,0,17,[0.5314815662525318],[-0.08981482187906902],images/objects/blutspritze.png,images/objects/uberwachungsmonitor.png,0.531481566,-0.089814822,1,0,0,0.8899,image_right,0,49,49,10,1,images/scenes/intensivstation.png,images/objects/blutige_schere.png,images/objects/blutige_schere.png,images/objects/blutspritze.png,images/objects/uberwachungsmonitor.png,Korrekt,Nicht_korrekt,Nicht_korrekt,images/objects/blutspritze.png,images/objects/uberwachungsmonitor.png,,,,,,,
,,,,,,,999,2024-06-30_23h13.31.593,E_forgetting_curve,2023.1.3,Win32,60.24096386,e,main,images/scenes/kaputtes_atomkraftwerk.png,images/objects/radioaktiver_mull.png,images/objects/radioaktiver_mull.png,images/objects/schutzanzug.png,images/objects/morserbombe.png,images/objects/schutzanzug.png,1.282,0,17,[0.058333361590350116],[-0.11759263497811777],images/objects/morserbombe.png,images/objects/schutzanzug.png,0.058333362,-0.117592635,1,0,0,1.282,image_middle,0,50,50,26,1,images/scenes/kaputtes_atomkraftwerk.png,images/objects/radioaktiver_mull.png,images/objects/radioaktiver_mull.png,images/objects/schutzanzug.png,images/objects/morserbombe.png,Korrekt,Nicht_korrekt,Nicht_korrekt,images/objects/morserbombe.png,images/objects/schutzanzug.png,,,,,,,
,,,,,,,999,2024-06-30_23h13.31.593,E_forgetting_curve,2023.1.3,Win32,60.24096386,e,main,images/scenes/leichenhalle.png,images/objects/raucherlunge.png,images/objects/beinprothese.png,images/objects/op_besteck.png,images/objects/raucherlunge.png,images/objects/beinprothese.png,3.8487,0,17,[-0.5583333262690792],[-0.19537035624186197],images/objects/op_besteck.png,images/objects/beinprothese.png,-0.558333326,-0.195370356,1,0,0,3.8487,image_left,0,51,51,15,1,images/scenes/leichenhalle.png,images/objects/raucherlunge.png,images/objects/beinprothese.png,images/objects/op_besteck.png,images/objects/raucherlunge.png,Nicht_korrekt,Nicht_korrekt,Korrekt,images/objects/op_besteck.png,images/objects/beinprothese.png,,,,,,,
,,,,,,,999,2024-06-30_23h13.31.593,E_forgetting_curve,2023.1.3,Win32,60.24096386,e,main,images/scenes/plastikteppich_am_strand.png,images/objects/tote_schildkrote.png,images/objects/toter_fisch.png,images/objects/tote_qualle.png,images/objects/tote_schildkrote.png,images/objects/tote_qualle.png,0.7822,0,17,[-0.019444430315936054],[-0.1935185326470269],images/objects/toter_fisch.png,images/objects/tote_qualle.png,-0.01944443,-0.193518533,1,0,0,0.7822,image_middle,0,52,52,28,1,images/scenes/plastikteppich_am_strand.png,images/objects/tote_schildkrote.png,images/objects/toter_fisch.png,images/objects/tote_qualle.png,images/objects/tote_schildkrote.png,Nicht_korrekt,Nicht_korrekt,Korrekt,images/objects/toter_fisch.png,images/objects/tote_qualle.png,,,,,,,
,,,,,,,999,2024-06-30_23h13.31.593,E_forgetting_curve,2023.1.3,Win32,60.24096386,e,main,images/scenes/unordentlicher_schreibtisch.png,images/objects/schimmelndes_brot.png,images/objects/schimmelnde_erdbeere.png,images/objects/schimmelndes_brot.png,images/objects/lebensmittelmotten.png,images/objects/lebensmittelmotten.png,1.1564,0,17,[0.6342592592592593],[-0.19629633868182148],images/objects/schimmelnde_erdbeere.png,images/objects/lebensmittelmotten.png,0.634259259,-0.196296339,1,0,0,1.1564,image_right,0,53,53,38,1,images/scenes/unordentlicher_schreibtisch.png,images/objects/schimmelndes_brot.png,images/objects/schimmelnde_erdbeere.png,images/objects/schimmelndes_brot.png,images/objects/lebensmittelmotten.png,Nicht_korrekt,Korrekt,Nicht_korrekt,images/objects/schimmelnde_erdbeere.png,images/objects/lebensmittelmotten.png,,,,,,,
,,,,,,,999,2024-06-30_23h13.31.593,E_forgetting_curve,2023.1.3,Win32,60.24096386,e,main,images/scenes/brennende_savanne.png,images/objects/verbranntes_tier.png,images/objects/totes_krokodil.png,images/objects/tote_ratte.png,images/objects/verbranntes_tier.png,images/objects/totes_krokodil.png,2.1166,0,17,[-0.6157407407407407],[-0.21481485720034],images/objects/tote_ratte.png,images/objects/totes_krokodil.png,-0.615740741,-0.214814857,1,0,0,2.1166,image_left,0,54,54,47,1,images/scenes/brennende_savanne.png,images/objects/verbranntes_tier.png,images/objects/totes_krokodil.png,images/objects/tote_ratte.png,images/objects/verbranntes_tier.png,Nicht_korrekt,Nicht_korrekt,Korrekt,images/objects/tote_ratte.png,images/objects/totes_krokodil.png,,,,,,,
,,,,,,,999,2024-06-30_23h13.31.593,E_forgetting_curve,2023.1.3,Win32,60.24096386,e,main,images/scenes/schlachthaus.png,images/objects/messer.png,images/objects/blutiger_handschuh.png,images/objects/messer.png,images/objects/blutige_sage.png,images/objects/messer.png,1.6158,1,18,[-0.08425924513075086],[-0.2212963104248047],images/objects/blutige_sage.png,images/objects/blutiger_handschuh.png,-0.084259245,-0.22129631,1,0,0,1.6158,image_middle,0,55,55,2,1,images/scenes/schlachthaus.png,images/objects/messer.png,images/objects/blutiger_handschuh.png,images/objects/messer.png,images/objects/blutige_sage.png,Nicht_korrekt,Korrekt,Nicht_korrekt,images/objects/blutige_sage.png,images/objects/blutiger_handschuh.png,,,,,,,
,,,,,,,999,2024-06-30_23h13.31.593,E_forgetting_curve,2023.1.3,Win32,60.24096386,e,main,images/scenes/absturzender_kampfjet.png,images/objects/panzer.png,images/objects/kampfhelm.png,images/objects/motorraduberreste.png,images/objects/panzer.png,images/objects/panzer.png,1.7594,1,19,[0.501851823594835],[-0.20833333333333334],images/objects/motorraduberreste.png,images/objects/kampfhelm.png,0.501851824,-0.208333333,1,0,0,1.7594,image_right,0,56,56,8,1,images/scenes/absturzender_kampfjet.png,images/objects/panzer.png,images/objects/kampfhelm.png,images/objects/motorraduberreste.png,images/objects/panzer.png,Nicht_korrekt,Nicht_korrekt,Korrekt,images/objects/motorraduberreste.png,images/objects/kampfhelm.png,,,,,,,
,,,,,,,999,2024-06-30_23h13.31.593,E_forgetting_curve,2023.1.3,Win32,60.24096386,e,main,images/scenes/schlachthof.png,images/objects/blutiger_schweinekopf.png,images/objects/blutiger_schweinekopf.png,images/objects/kuhzunge.png,images/objects/blutige_messer.png,images/objects/kuhzunge.png,1.9989,0,19,[0.027777777777777776],[-0.21018522757071037],images/objects/blutige_messer.png,images/objects/kuhzunge.png,0.027777778,-0.210185228,1,0,0,1.9989,image_middle,0,57,57,9,1,images/scenes/schlachthof.png,images/objects/blutiger_schweinekopf.png,images/objects/blutiger_schweinekopf.png,images/objects/kuhzunge.png,images/objects/blutige_messer.png,Korrekt,Nicht_korrekt,Nicht_korrekt,images/objects/blutige_messer.png,images/objects/kuhzunge.png,,,,,,,
,,,,,,,999,2024-06-30_23h13.31.593,E_forgetting_curve,2023.1.3,Win32,60.24096386,e,main,images/scenes/vermullte_wohnung.png,images/objects/verschutteter_kaffee.png,images/objects/verschutteter_kaffee.png,images/objects/pizzauberreste.png,images/objects/verschmutztes_wc.png,images/objects/verschmutztes_wc.png,4.3179,0,19,[0.681481537995515],[-0.20555559794108072],images/objects/verschmutztes_wc.png,images/objects/pizzauberreste.png,0.681481538,-0.205555598,1,0,0,4.3179,image_right,0,58,58,18,1,images/scenes/vermullte_wohnung.png,images/objects/verschutteter_kaffee.png,images/objects/verschutteter_kaffee.png,images/objects/pizzauberreste.png,images/objects/verschmutztes_wc.png,Korrekt,Nicht_korrekt,Nicht_korrekt,images/objects/verschmutztes_wc.png,images/objects/pizzauberreste.png,,,,,,,
,,,,,,,999,2024-06-30_23h13.31.593,E_forgetting_curve,2023.1.3,Win32,60.24096386,e,main,images/scenes/steinschlag.png,images/objects/tote_giraffe.png,images/objects/toter_steinbock.png,images/objects/blutiger_kinderschuh.png,images/objects/tote_giraffe.png,images/objects/blutiger_kinderschuh.png,1.5565,0,19,[0.08981485720033999],[-0.24814817640516493],images/objects/blutiger_kinderschuh.png,images/objects/toter_steinbock.png,0.089814857,-0.248148176,1,0,0,1.5565,image_middle,0,59,59,34,1,images/scenes/steinschlag.png,images/objects/tote_giraffe.png,images/objects/toter_steinbock.png,images/objects/blutiger_kinderschuh.png,images/objects/tote_giraffe.png,Nicht_korrekt,Nicht_korrekt,Korrekt,images/objects/blutiger_kinderschuh.png,images/objects/toter_steinbock.png,,,,,,,
,,,,,,,999,2024-06-30_23h13.31.593,E_forgetting_curve,2023.1.3,Win32,60.24096386,,,,,,,,,,,,,,,,,,,,,,,,,,,,,,,,,,,,,,0.791666667,-0.041666667,1,0,0,3.7686,polygon
